accel_x_mean,accel_x_std,accel_x_min,accel_x_max,accel_x_rms,accel_x_p05,accel_x_p25,accel_x_p50,accel_x_p75,accel_x_p95,accel_x_range,accel_y_mean,accel_y_std,accel_y_min,accel_y_max,accel_y_rms,accel_y_p05,accel_y_p25,accel_y_p50,accel_y_p75,accel_y_p95,accel_y_range,accel_z_mean,accel_z_std,accel_z_min,accel_z_max,accel_z_rms,accel_z_p05,accel_z_p25,accel_z_p50,accel_z_p75,accel_z_p95,accel_z_range,accel_mag_mean,accel_mag_std,accel_mag_min,accel_mag_max,accel_mag_rms,accel_mag_p05,accel_mag_p25,accel_mag_p50,accel_mag_p75,accel_mag_p95,accel_mag_range,gyro_x_mean,gyro_x_std,gyro_x_min,gyro_x_max,gyro_x_rms,gyro_y_mean,gyro_y_std,gyro_y_min,gyro_y_max,gyro_y_rms,gyro_z_mean,gyro_z_std,gyro_z_min,gyro_z_max,gyro_z_rms,gyro_mag_mean,gyro_mag_std,gyro_mag_min,gyro_mag_max,gyro_mag_rms,jerk_mean,jerk_std,jerk_min,jerk_max,jerk_rms,jerk_p05,jerk_p95,jerk_range,strong_accel_count,strong_accel_ratio,accel_peak_deviation,accel_energy,gyro_energy,jerk_energy,label,source_file,window_start,window_end,stage1_label,prediction,anomaly_probability,source_type
0.0523482310799999,0.6687566348982352,-1.170560718,1.570044577,0.67080233602576,-0.96147702915,-0.48503671975,0.053895667,0.49196996025,1.36704550045,2.3285225296,-0.0248649120399999,0.5218074369414735,-1.264612675,1.448066235,0.5223995263188768,-0.8133158205000001,-0.4046860935,-0.0114285944999999,0.250896096,0.8717267032999996,1.6850425237999995,-0.04399357489,0.5638708762866357,-1.3128483,2.008711338,0.5655844762330916,-0.8054458411500001,-0.46373002975,-0.0736743434999999,0.3020990525,0.7015051631999996,1.5069510043499996,0.9246949409488496,0.4332460098549865,0.0802331328237737,2.324942789773805,1.0211575974704707,0.3061436753016378,0.6415680988488709,0.8802927737212607,1.1631472180540996,1.789309555062932,1.4831658797612943,-0.0236865843599999,0.080748720562964,-0.182953998,0.210748348,0.0841511149729999,0.0184789652599999,0.062523000139129,-0.090255272,0.195262924,0.0651966080672745,0.01612438681,0.1054801121526998,-0.485026635,0.154396076,0.1067054352399381,0.1254660235003365,0.0835244557685622,0.0180114490873335,0.5161820022997975,0.1507251066160561,0.0075670161774938,0.4440476064103451,-1.4283420194330527,1.2199727278611947,0.4441120764993756,-0.7291920231473774,0.6800626409832815,1.409254664130659,5,0.05,1.400247848824956,104.2762838871664,2.27180577644215,19.72355364925873,NORMAL,48.csv,14.18,15.18,NORMAL,ANOMALY,0.5111604938271604,ANOMALY_RECORDING_SAFE_REGION
0.0251303279027343,2.037253925213677,-3.928903818130493,4.897999286651611,2.0374089155540265,-2.699804401397705,-1.4862361997365952,-0.2114462479948997,1.5141060948371887,3.596616435050964,6.29642083644867,-0.0494856548309326,1.9869792281338328,-4.562569856643677,4.20499324798584,1.9875953519439944,-2.715647006034851,-1.627714455127716,-0.0514736175537108,1.4743887186050415,3.57902181148529,6.294668817520141,-0.2134523007273674,1.4225112188362194,-4.044360160827637,2.872313976287842,1.438436669582889,-2.756639134883881,-1.1272038966417313,-0.2266589105129242,0.7634645402431488,1.8474625587463367,4.604101693630217,2.892632499731876,1.3428878010258478,0.4120428730104986,6.434763384533496,3.189148855831147,0.9041361471764836,1.77628225284138,2.869641751130369,3.801492447447089,5.17740913753072,4.273272990354236,0.0170287721276108,0.1683603804212455,-0.3999637141823768,0.494495041668415,0.1692193747056187,-0.0157471777824903,0.0895101331110921,-0.2420551627874374,0.2327394858002662,0.0908847486527789,-0.0057311334710902,0.1664308462547729,-0.4621497452259063,0.3466352224349975,0.166529494312399,0.2246563285604595,0.1189825232003322,0.0403971147173967,0.5939380267274073,0.2542190134301184,0.0216730782766672,1.1489726120936137,-3.613212628446245,2.4944230833595227,1.1491770036261637,-1.755436707840656,1.7406259294989364,3.496062637339592,3,0.03,3.54213088480162,1017.0670424649117,6.462730678938272,132.06077856632078,NORMAL,95.csv,158.59,159.59,NORMAL,ANOMALY,0.8551621575224359,ANOMALY_RECORDING_SAFE_REGION
0.3010847251117229,0.9964827697637124,-2.36369252204895,2.640327572822571,1.0409754666328892,-1.2001470446586608,-0.3312574867159128,0.2106311842799186,1.0243167728185654,2.0423064231872554,3.242453467845916,0.0235349702835082,0.4618595331926349,-1.2783255577087402,1.3449010848999023,0.4624587800303549,-0.6611279249191284,-0.2758270502090454,0.0166902542114257,0.3103506565093994,0.7856646299362182,1.4467925548553466,0.069239147901535,0.898957352268401,-2.1666663885116577,2.390798807144165,0.9016198649095664,-1.7446082830429075,-0.4773200750350952,0.0666504502296446,0.6623275056481361,1.490941898524761,3.2355501815676684,1.3057113441705654,0.6368157597473275,0.153895650038187,3.121188426616269,1.4527272373567826,0.4686911916216522,0.8472094366037247,1.2557875747303815,1.596972076149649,2.5685696054268736,2.0998784138052216,-0.0025521931021794,0.0957330258366582,-0.23964224755764,0.2737285047769546,0.095767039870057,-0.1983270244244485,0.0604597609359829,-0.3685652613639831,-0.0755945168435573,0.2073378675242224,0.0295924280247127,0.0689853847560069,-0.0806036069989204,0.3123046159744262,0.0750646062157933,0.2305896611979387,0.0679957387629333,0.1046278774668021,0.4564092818922077,0.240405932417021,-0.0075347786777167,0.6791910194539749,-2.468085970209587,1.71885721057757,0.6792328126619414,-1.071405241833559,1.097050567128753,2.168455808962312,5,0.05,1.815477082445704,211.041642615827,5.779501234129726,46.13572137966519,NORMAL,95.csv,164.09,165.09,NORMAL,ANOMALY,0.5907049420014548,ANOMALY_RECORDING_SAFE_REGION
-0.00378825335,1.2416355957230234,-2.943840265,2.643566608,1.2416413747253716,-2.01218032495,-0.93987875425,0.239693731,0.92282395075,1.8295703289,3.84175065385,0.05399973027,0.926265145240034,-2.346684217,2.829837799,0.9278378576862304,-1.4158440113,-0.382352114,0.0067858695,0.5408090354999999,1.68971819905,3.10556221035,-0.0030791353699999,0.971340189480815,-2.590506077,2.220420837,0.9713450698774624,-1.6437751351499998,-0.65537785775,0.054383874,0.66329074675,1.3127236725999996,2.956498807749999,1.6814050927988198,0.7203780620418211,0.3449668231999671,3.951528805763665,1.8292259670037865,0.6273195895055471,1.2098758212022207,1.5934070050767422,2.190805374174424,2.85484339119382,2.227523801688273,-0.0041679303499999,0.1349927120542247,-0.391869754,0.450909841,0.1350570396208848,0.00320093115,0.0818050723314047,-0.322383888,0.257632215,0.0818676726148569,0.0246361765,0.0881763480192015,-0.151005773,0.223576512,0.0915533153006624,0.1595051024487453,0.088785424512633,0.0417690046732023,0.4717365370068203,0.1825506212344214,0.0276690709098987,1.003836535139478,-2.190212501598648,2.387622501635842,1.0042177885129548,-1.6926595210209736,1.652088740112618,3.3447482611335912,3,0.03,2.2701237129648453,334.6067638360937,3.332472931307318,100.84533667658496,NORMAL,22.csv,0.09,1.09,NORMAL,ANOMALY,0.5116529991693947,ANOMALY_RECORDING_SAFE_REGION
0.4720776368491352,0.7710978627462912,-1.6465029120445251,2.116196930408478,0.9041289781579628,-0.7240254238247871,-0.085658686235547,0.4772211909294128,1.0716716051101685,1.6718563437461853,2.3958817675709723,0.0629884219169616,0.6512338832431084,-1.5941786766052246,1.858898639678955,0.6542729644265363,-1.1754006743431091,-0.3110600709915161,0.0515792369842528,0.418527603149414,1.0871819019317623,2.2625825762748715,0.4028695377707481,0.7336675536774352,-1.065072476863861,2.2638848423957825,0.8370017585302009,-0.7583562672138214,-0.1119160652160643,0.3847404718399048,0.9466036558151244,1.5702436804771416,2.328599947690963,1.2756969284283468,0.5645277776208887,0.1957243199664465,2.637279316475582,1.3950248259106712,0.4805501114332293,0.771373880947497,1.2575554325245453,1.6327325921518343,2.2897975045584817,1.8092473931252524,-0.002649014913768,0.0869781487955238,-0.189673513174057,0.2191477455198764,0.0870184787726701,-0.0689128774372511,0.0611249625045394,-0.2237292267382145,0.0844520581886172,0.0921153934902465,0.0064412636384295,0.0498931063773566,-0.1085201278328895,0.150853057205677,0.050307175842438,0.1270660893446911,0.0494214755512373,0.0226895366497823,0.2571420181281221,0.1363388180490595,-0.0088235652078298,0.7473098277334792,-1.80544525524044,1.8179934402529396,0.7473619162962608,-1.3286702021527854,1.4175119012434347,2.74618210339622,3,0.03,1.3615823880472353,194.60942649070984,1.8588273307014571,55.85498339300192,NORMAL,95.csv,187.09,188.09,NORMAL,ANOMALY,0.5952883470310988,ANOMALY_RECORDING_SAFE_REGION
-0.3145327423512936,1.095477604721074,-2.8021408319473267,2.558492422103882,1.139737701603508,-2.125907748937607,-1.0888952352106571,-0.3302496746182441,0.5278425626456738,1.314042614400386,3.439950363337993,-0.0594837975502014,1.0383496320300372,-2.415455818176269,3.3666634559631348,1.0400520566336606,-1.5188527345657348,-0.7431631088256836,-0.1313786506652831,0.6413782835006714,1.6528607606887813,3.171713495254516,0.1057306206226348,1.2712610047910051,-3.053240299224853,3.559310913085937,1.2756502288791722,-1.954877066612244,-0.7424555122852325,0.092271864414215,0.832847498357296,2.5431815743446347,4.498058640956879,1.85924186605523,0.7424375387272016,0.3378061871336265,3.847776885246408,2.001997456392949,0.6769512992740632,1.362208247546996,1.7899582447050804,2.308916849957293,3.292594326312278,2.6156430270382147,0.0016679666896379,0.1912099872540295,-0.6123919367790223,0.4526508003473282,0.1912172621354146,0.0184866008654935,0.0898261183836262,-0.2240346595644951,0.234724786132574,0.0917087016341922,-0.0044816095130954,0.0809343230305506,-0.2707658141851425,0.1499673053622245,0.0810583090635463,0.1970779690377275,0.1127175713107724,0.0167414288350578,0.6275275954473458,0.2270351883788822,0.0009431243052555,0.8950813016476374,-2.5978132148589363,2.01621281584577,0.895081798520495,-1.3125895727418169,1.6075588157351255,2.9201483884769424,4,0.04,1.9885350191911777,400.7993815403838,5.154497676223457,80.1171426042684,NORMAL,95.csv,4.09,5.09,NORMAL,ANOMALY,0.5158267389756868,ANOMALY_RECORDING_SAFE_REGION
-0.1209492424875497,1.25662805455002,-3.3262360095977783,3.087614893913269,1.262435260415551,-2.2381762355566024,-1.0137282013893127,0.0533381476998328,0.750618577003479,1.574450924992561,3.8126271605491633,-0.0435943436622619,1.213811423346263,-3.1781911849975586,3.951017379760742,1.2145940219864513,-1.91183899641037,-0.9335358142852784,-0.055368423461914,0.6698172092437744,1.928355813026428,3.840194809436798,0.0174556592106819,1.3566335726210452,-3.559873104095459,3.18343985080719,1.3567458680243032,-2.242188745737076,-0.6954473406076431,0.0392109900712966,0.9384464398026466,2.17626114487648,4.418449890613555,2.058822347759659,0.8191405958394018,0.40453819377128,4.567918110420544,2.2157934866288254,0.9720572200913812,1.4771967119144973,1.917744512120194,2.6197440013922524,3.362594806412767,2.390537586321386,-0.0007052431304473,0.2200032075952742,-0.4731147706508636,0.4850877165794373,0.2200043379574193,0.0024630067150865,0.1061456602582826,-0.2701549492776394,0.303874684870243,0.1061742322493801,0.0095078049361618,0.1088140682916401,-0.2432768940925598,0.2115119285881519,0.1092286583863494,0.2460819074512553,0.1051164637526458,0.0484361541837431,0.4981688154463306,0.2675925561870313,-0.0051722810211183,1.2158109316329475,-3.18175757967297,2.294406145161267,1.2158219334956657,-2.125218657221082,1.9114646957679384,4.03668335298902,3,0.03,2.5090957626608854,490.9740775386725,7.160577612670953,147.82229739691385,NORMAL,91.csv,75.09,76.09,NORMAL,ANOMALY,0.67786976651649,ANOMALY_RECORDING_SAFE_REGION
0.1572858314216137,1.1827807654560754,-2.9782636165618896,2.620718240737915,1.1931928477404012,-1.8351921826601032,-0.4980342332273721,0.1148347798734903,0.9890445917844772,2.0520741879940028,3.887266370654106,0.0678081798553466,0.5889341099875838,-1.206864833831787,1.6106224060058594,0.592824877313834,-0.8364533901214599,-0.3628036975860595,0.0833327770233154,0.4843072891235351,1.0241796731948851,1.860633063316345,-0.3254759530723095,0.954758891267154,-2.301349639892578,2.3205087184906006,1.008711622061535,-1.6044338688254356,-1.024991638958454,-0.4587676525115967,0.282396450638771,1.1616484045982358,2.766082273423671,1.5369670466477914,0.656035015118697,0.2675726587299455,3.940825228592095,1.671122270674119,0.6553474488739528,1.0272952115917175,1.4883707673679782,1.8965935701725536,2.676236148960434,2.020888700086481,0.0242644654348259,0.1318915722569629,-0.3426340520381927,0.3296837210655212,0.1341050003364957,-0.0592764856058347,0.0882153860879885,-0.2437045067548751,0.2036928609013557,0.1062810241220492,0.0287204186225717,0.1003015759238708,-0.2974300593137741,0.2555247336626053,0.1043324905226928,0.1803076487385884,0.0874884426007959,0.0324087945098202,0.4315774528362402,0.2004122645507278,0.0117604012554177,0.9419344187653086,-2.322895093826824,2.292368953822427,0.9420078323944168,-1.7430151377972654,1.5091526916112556,3.252167829408521,4,0.04,2.403858181944304,279.2649643543023,4.016507578235093,88.73787562924278,NORMAL,102.csv,198.05,199.05,NORMAL,ANOMALY,0.7786513687600645,ANOMALY_RECORDING_SAFE_REGION
0.11991011228,0.6461820710562092,-1.446045935,1.529124856,0.6572135908374794,-0.8931335207,-0.30137616025,0.189314295,0.5229584355,1.43634383125,2.32947735195,-0.04583338737,0.5038320593532172,-1.8049016,1.066760063,0.5059124859399223,-0.7585251091499999,-0.420850992,0.006944418,0.218274832,0.8055437323,1.56406884145,-0.25049431292,0.6351224150144006,-1.872229218,1.292403698,0.6827355878075988,-1.3231409462,-0.639530033,-0.285557583,0.16650452425,0.740409002149999,2.063549948349999,0.9729605346352757,0.4553601083896474,0.0968193053321079,2.7206647657730127,1.0742462614644712,0.3508288394002472,0.6562700786405571,0.9220640711311578,1.1810946376385107,1.7704188233275149,1.4195899839272674,-0.0005094572799999,0.0760087085331534,-0.166643913,0.174829501,0.0760104158625514,-0.01620838483,0.0562563917379113,-0.153968468,0.128128888,0.0585447978061818,-0.0184316204,0.0394605293270251,-0.108611758,0.077335481,0.0435529333723769,0.0954959046921435,0.0445249015959885,0.0145337362819174,0.2130016396131434,0.105365718690205,0.0022719685711815,0.6674143782609907,-2.4656800731757325,2.427175186894756,0.667418245293529,-0.8947831518608858,1.0404358543873486,1.9352190062482344,3,0.03,1.747704231137737,115.40050302703932,1.110193467510343,44.54471141506932,NORMAL,37 - Normal Road.csv,7.09,8.09,NORMAL,ANOMALY,0.6020719373219373,ORIGINAL_NORMAL
-0.4016254936354329,1.0824451152223231,-3.215601921081543,1.429823875427246,1.1545520623196577,-2.3126819014549254,-1.2436082065105438,-0.1551442891359329,0.4188105762004852,1.144447815418243,3.457129716873168,0.0343223725906526,0.6949296943661274,-1.5356426239013672,2.128578186035156,0.6957767640357436,-1.0897443771362303,-0.3893823623657226,0.0945777893066406,0.4170188903808594,1.2156276226043696,2.3053719997406,-0.0173899678870885,0.7672229797407055,-2.3241772651672363,1.482836127281189,0.7674200359811574,-1.3455382525920867,-0.4724288880825043,-0.0289018154144287,0.4834250509738922,1.1768497437238692,2.522387996315956,1.3970183970680343,0.6740688984498585,0.1319973332650578,3.2491428381804486,1.551138060136475,0.4432835138353889,0.8813128210801406,1.3121233191138588,1.8188984294241608,2.5825703176413897,2.1392868038060007,-0.0270026911763125,0.1091785520810002,-0.2808145374059677,0.2753167599439621,0.1124682246915411,0.1299756736896762,0.0520861581320333,0.0066278826445341,0.2805396467447281,0.1400237252041252,-0.0350287758469207,0.0579768805432733,-0.1859166949987411,0.1118187978863716,0.0677372409746869,0.1820315389286738,0.0608982580656366,0.0708290140440222,0.3853386995274208,0.1919481153858254,0.0078760657107804,0.6205177342907423,-2.1550650590381,1.388577878740108,0.6205677166759457,-0.9722166493978948,0.9172472568400584,1.8894639062379528,4,0.0404040404040404,1.852124441112414,238.1968988787907,3.647563821016848,38.12532480705928,NORMAL,95.csv,148.59,149.59,NORMAL,ANOMALY,0.8413639053254439,ANOMALY_RECORDING_SAFE_REGION
0.2761850215494633,1.084599898232844,-2.8047198057174683,2.8910789489746094,1.119211823282337,-1.558034124970436,-0.3662424311041832,0.2376368194818496,1.0398176163434982,2.030413651466369,3.588447776436806,0.0135567498207092,0.578690178030799,-1.6114046573638916,1.477372169494629,0.5788489506037126,-0.9742765903472902,-0.3336007595062255,0.089829921722412,0.4150058031082153,0.7876803636550901,1.7619569540023805,-0.2022110240161418,0.7923589795975957,-2.9484012126922607,1.5893469452857971,0.8177542728611082,-1.5679188311100003,-0.7109635397791862,-0.1077268868684768,0.4009044021368027,1.0734580770134925,2.641376908123493,1.3579580807037046,0.6421628413604321,0.294036116635885,3.098799162102964,1.5021395620156577,0.5217483003000666,0.8973645106122182,1.3001399995966278,1.7309621039586431,2.5562942815029683,2.0345459812029016,0.0161457668242364,0.1110117393134012,-0.2417497374117374,0.2651764035224914,0.1121797310200429,0.010749693296937,0.0753658923941416,-0.1947131440043449,0.1652083814144134,0.0761286650503182,6.719518716272549e-05,0.0929621168806496,-0.1944382578134536,0.2386648714542389,0.0929621411657711,0.1518734172692749,0.0628990501609538,0.0347740501689652,0.3351118759763184,0.1643831663650432,0.0210578264146837,0.8667502674148915,-2.6386116730491,2.394849339464561,0.8670060311884206,-1.4147530257798149,1.5319718913836464,2.9467249171634613,5,0.05,1.7408410813992594,225.6423263772592,2.7021825384197484,75.16994581170965,NORMAL,102.csv,192.55,193.55,NORMAL,ANOMALY,0.5812541293738015,ANOMALY_RECORDING_SAFE_REGION
0.0201097244024276,1.3113834521483625,-2.829433798789978,2.811745405197144,1.3115376317834335,-1.8885813564062115,-0.8309407979249954,-0.1465728655457496,0.8562891334295273,2.6800498425960537,4.568631199002265,0.2178884744644165,0.9861015942803436,-3.008163452148437,2.060441017150879,1.0098869944437674,-1.6414214849472046,-0.3228626251220702,0.1950290203094482,0.8851197957992554,1.80706307888031,3.4484845638275146,1.2473814097046851,1.3242799583675005,-2.662729859352112,4.227082848548889,1.8192519862324397,-0.9564642369747162,0.3580692932009697,1.307610809803009,2.1022437512874608,3.265786898136138,4.222251135110855,2.2479787201273824,0.9981343418577968,0.5111694318306564,5.557155361061077,2.4596098248586995,0.7782323912601145,1.5595086335797157,2.183132877087524,2.7045867030043285,3.899196530735049,3.1209641394749346,0.0014340052746701,0.1950378196055019,-0.6264418214559555,0.6209440410137177,0.1950430912583065,0.0609087161737552,0.0825508400895562,-0.1429423596709966,0.4308123812079429,0.1025890486622551,-0.002010050701574,0.1050717495414587,-0.2435823291540146,0.2822500735521316,0.1050909741867775,0.205569341903033,0.1317257715031592,0.036047414769048,0.7928629118553397,0.2441524794233075,0.012994113960232,0.9299730464171516,-2.854555179752805,2.7602658696301074,0.9300638225734884,-1.586600881601272,1.4313757757470376,3.0179766573483096,4,0.04,3.3091766409336945,604.9680490541442,5.961043320854859,86.50187140600093,NORMAL,95.csv,154.09,155.09,NORMAL,ANOMALY,0.8157872340425532,ANOMALY_RECORDING_SAFE_REGION
-0.048919794303365,0.6259329643517656,-1.6252939105033877,1.957648992538452,0.6278417174231672,-0.99197651296854,-0.4343927260488271,-0.0627131517976522,0.2304170886054634,1.035074010491371,2.027050523459911,-0.1137838315963745,0.3062645963671155,-0.8736224174499512,0.4811997413635254,0.3267181710904129,-0.6254136562347412,-0.3439602851867676,-0.1125147342681884,0.1071187257766723,0.404244327545166,1.0296579837799071,-0.3169294374808669,0.8355580715338609,-2.206334590911865,1.906264305114746,0.8936450969189744,-1.3694462329149246,-0.924200065433979,-0.5425607785582542,0.2550030499696731,1.1725133329629898,2.5419595658779146,1.051889417167713,0.4393861613153395,0.2297897847915005,2.2224192474351088,1.1399699753523598,0.4344883031508029,0.7149049569391065,0.9997685095915428,1.3473791837513325,1.8094042687340104,1.3749159655832075,-0.0251486919048474,0.1151636298737831,-0.3355174735188484,0.3675573408603668,0.1178775566010368,0.0894727533019904,0.1409849849576349,-0.1182023361325264,0.641102597117424,0.1669794585179368,0.0082222398130106,0.0689294185109061,-0.2154520064592361,0.1344513371586799,0.0694180809573003,0.1690632357243159,0.1342153128647873,0.0095514427261962,0.7542375646793041,0.2158613626403955,-0.00042722003508,0.5309609616759687,-1.5240745712881187,1.8022282774318013,0.5309611335501195,-0.770440317397598,1.099279963767872,1.86972028116547,5,0.05,1.170529830267396,129.953154470486,4.659612788096837,28.191972534082787,NORMAL,102.csv,131.05,132.05,NORMAL,ANOMALY,0.6944830917874396,ANOMALY_RECORDING_SAFE_REGION
0.1083669570833444,1.2221696979177783,-3.937782406806946,3.160566806793213,1.2269646155843033,-1.875695487856865,-0.7160702161490917,0.1517310068011283,0.9488497637212276,2.050859412550926,3.926554900407791,0.0819257545471191,1.0328343305765424,-2.510524034500122,2.042853832244873,1.0360784640535723,-1.5267146468162534,-0.6421838998794556,0.0588619709014892,0.9341626167297362,1.576286458969116,3.1030011057853693,0.2893173256516456,1.1616436089833264,-2.764339089393616,2.710390329360962,1.1971300636163251,-1.4895675122737884,-0.5110520645976067,0.3884901702404022,1.0117818340659142,1.9833774685859675,3.472944980859756,1.8360201489686003,0.8006567013189193,0.359119056994996,4.534629195886,2.003003030648125,0.6076299768687486,1.223134946887067,1.823254976711625,2.30865128559658,3.2147057853032184,2.6070758084344696,0.0019382740171131,0.2234405274208445,-0.7304110169410706,0.7113520354032516,0.2234489342115343,-0.0113083288636626,0.1154023917993663,-0.3784307315945625,0.2959334481507539,0.115955122071874,-0.0030805912559153,0.0998625508230152,-0.3133125364780426,0.2347247898578643,0.0999100550463531,0.2249147530814846,0.1508986066225725,0.0273645774526391,0.8343813765325481,0.2708450398924431,0.0030856159138174,1.032102415035742,-2.466524659232622,2.963123045483175,1.0321070274676842,-1.6876453138930576,1.7039369359069552,3.3915822498000128,3,0.03,2.698609046917399,401.2021140785574,7.335703563433911,106.52449161481788,NORMAL,91.csv,77.09,78.09,NORMAL,ANOMALY,0.5188086485056863,ANOMALY_RECORDING_SAFE_REGION
-0.0903851400315761,1.1860813175088163,-2.861416459083557,3.3633378744125366,1.1895202248309933,-1.9447421431541445,-0.9305967278778552,-0.1538783647119998,0.6995186842978001,1.9769176244735716,3.921659767627716,0.0106649756431579,1.212061790766005,-3.2097036838531494,3.951017379760742,1.2121087106115376,-2.0039199709892275,-0.7176026105880737,0.0071644783020019,0.8901214599609375,1.922732925415039,3.926652896404266,0.018224553912878,1.2278256433725985,-3.3334795236587524,2.865877151489258,1.2279608889898157,-2.037372213602066,-0.8141448944807053,0.0289572626352309,0.9470408856868744,1.9578356683254243,3.9952078819274903,1.9551797573997305,0.7545369127917675,0.5789288599266597,4.187656214956639,2.095722748006281,0.8217549180464405,1.4402181338304,1.8408929197471071,2.4698010140883806,3.244296695437576,2.4225417773911357,0.0041419690478942,0.2392451463970903,-0.552832618355751,0.4850877165794373,0.2392809979546201,0.0022828014440019,0.1020096832846323,-0.2039982974529266,0.303874684870243,0.1020352226746418,0.0190824995974107,0.1059997438781909,-0.1968511790037155,0.2188423052430153,0.1077037023185705,0.26044593165358,0.1069326275121331,0.0597184760016541,0.5548294467060388,0.2815433716881822,-0.0084711195493259,1.0521272854632993,-2.337252164869087,2.3339596257207336,1.05216138718487,-1.7508632970903115,1.6435527734338913,3.394416070524203,2,0.02,2.232476457556908,439.2053836511,7.926667014154994,110.704358468279,NORMAL,91.csv,74.59,75.59,NORMAL,ANOMALY,0.6865982490716532,ANOMALY_RECORDING_SAFE_REGION
0.0242041699588298,0.6967138959673375,-2.724686622619629,1.4658795595169067,0.6971342013395855,-1.2467904724180698,-0.3586742989718914,0.0659042671322822,0.4697019271552562,1.073886239528656,2.3206767119467258,0.2209904670715332,1.1436534257532145,-1.402109146118164,3.745691299438477,1.164808973511776,-1.237102460861206,-0.5452934503555298,-0.0558278560638427,0.7251148223876953,2.447124409675597,3.6842268705368033,0.109133415967226,1.1485494187945633,-2.673323392868042,4.139491558074951,1.153722613930231,-1.715368577837944,-0.5494298338890076,0.0158900022506713,0.672376275062561,2.1506657689809794,3.8660343468189233,1.4969677758803654,0.9658878751287524,0.0592304055008183,4.384356239212697,1.7815307769850468,0.3254870979143675,0.8710318650000025,1.2203819184876172,1.8416314942203524,3.3665430347780707,3.041055936863703,0.0214816705132834,0.2110303271220033,-0.5396990329027176,0.6699659526348114,0.2121208644458649,0.022594055701491,0.065803134837759,-0.2073885910212993,0.1853669166564941,0.06957401747433,-0.0007244855857788,0.0358626911436646,-0.0856737848371267,0.1770591557025909,0.0358700082998301,0.174146303975283,0.144206544053859,0.0225538607970049,0.7026142904100514,0.2261027698552347,-0.0187275258938854,0.7051597394136944,-2.4987178583285807,1.7691565431171168,0.7054083769817988,-1.2842501720622583,1.0082885992092492,2.2925387712715075,5,0.05,2.887388463332332,317.3851909344944,5.112246253620926,49.76009783160956,NORMAL,95.csv,155.59,156.59,NORMAL,ANOMALY,0.7361666666666665,ANOMALY_RECORDING_SAFE_REGION
0.0162628388777375,0.7964964589109867,-1.8449211120605469,2.205229878425598,0.7966624686692002,-1.214311072230339,-0.552239652723074,0.0230643823742866,0.499455276876688,1.2383708417415615,2.4526819139719005,-0.0427145099639892,0.6064159852042836,-1.910594463348389,1.1907663345336914,0.6079184784761406,-0.9428457260131836,-0.4204750061035155,-0.1073176860809325,0.4541295766830444,0.8269433021545407,1.7697890281677244,-0.0061831268668174,0.6606465613432666,-1.5266056060791016,1.5684903264045715,0.6606754952868569,-1.0981728136539457,-0.4020007997751235,-0.0426495075225829,0.4415965527296066,0.963773255050182,2.061946068704128,1.0826513845650607,0.5182606053239441,0.1856011025746897,2.6099582211309533,1.2003033264685157,0.3892236450734537,0.7008127972934955,1.0026594118732637,1.4473976426546764,2.0282605667464244,1.6390369216729708,-0.0302274219880346,0.1122708909821387,-0.3187187016010284,0.2065333843231201,0.1162688694447744,0.0382306668831515,0.0847187422732695,-0.1811519503593444,0.3042106628417969,0.0929454096913622,0.0034953677771845,0.2546184690651942,-0.5832842469215394,0.7999579548835755,0.2546424599021165,0.2416312985881234,0.1691579058521338,0.0336814521039292,0.8344250652413034,0.2949577623485475,-0.0038934717852187,0.5238379321946052,-1.7240613560954758,1.4608213416658251,0.5238524012815652,-0.8572456034172831,0.8809997383835868,1.73824534180087,4,0.04,1.5273068365658926,144.07280755313838,8.70000815696622,27.4421338328462,NORMAL,95.csv,0.59,1.59,NORMAL,ANOMALY,0.6820952380952381,ANOMALY_RECORDING_SAFE_REGION
0.0337521482259035,0.5353331116310073,-1.4377760887145996,1.3746813535690308,0.536396073735071,-0.8472664281725883,-0.268150271847844,-0.0011711791157722,0.3189510758966207,0.9296270251274108,1.7768934532999991,0.0040817356109619,0.3610878962003248,-0.8736224174499512,0.8353986740112305,0.3611109654219522,-0.5895803689956665,-0.2277261018753051,0.0191755294799804,0.2725838422775268,0.5576823234558105,1.147262692451477,0.5180102783814072,0.7901621884681688,-2.206334590911865,1.906264305114746,0.9448232282250416,-1.0762718118727208,0.0918298512697219,0.7429805845022202,1.074659898877144,1.5087985843420029,2.585070396214724,1.0748436469931333,0.3943652423559459,0.2297897847915005,2.2224192474351088,1.1449073368006526,0.4242122492090579,0.8410539021632569,1.063584291071103,1.347249738435747,1.713217062680951,1.2890048134718932,-0.0325144996222515,0.0656122542019208,-0.3355174735188484,0.1043967902660369,0.0732267750699351,0.0107866504047997,0.0474513447733825,-0.1182023361325264,0.1246469557285308,0.048661914756386,0.0165376367106509,0.0469926266802481,-0.1134375900030136,0.1344513371586799,0.0498176714658828,0.0867202189089438,0.051880117169954,0.0095514427261962,0.3466439239837141,0.1010541583765027,0.0065491381432709,0.4474198419774259,-1.0892040043727964,1.562622145896755,0.4474677711361169,-0.6495603997546456,0.7439298420013033,1.393490241755949,3,0.03,1.1475756004419757,131.0812809859963,1.0211942925183295,20.022740620552437,NORMAL,102.csv,130.55,131.55,NORMAL,ANOMALY,0.6455669479606189,ANOMALY_RECORDING_SAFE_REGION
0.3397179569303989,1.164554040493922,-2.608096480369568,3.807369351387024,1.2130929080213453,-1.7016138136386871,-0.2917807139456271,0.2855861186981201,1.1380923837423325,2.1294970899820327,3.83111090362072,0.0718275451660156,0.6274602534152174,-1.1008872985839844,1.4949955940246582,0.6315580463112356,-0.9262002944946288,-0.3335317373275757,0.0790698528289794,0.4210901260375976,1.3137527465820311,2.23995304107666,0.0559359574317932,0.7418619019078543,-1.633231282234192,2.229671001434326,0.7439676826557388,-1.2088622450828554,-0.3692999146878719,0.0066177695989608,0.4608253687620162,1.339746469259262,2.5486087143421177,1.373666081476816,0.7327955914089738,0.2002812486997552,3.884620498856046,1.5569032989201026,0.43286194147202,0.8373948200605683,1.1781907643538987,1.8873770588353944,2.526586982240663,2.0937250407686427,0.0129271206429839,0.1028558999045358,-0.2998735189437866,0.3310887143015861,0.1036650693015258,-0.0685952275987074,0.0754027182129059,-0.2925736904144287,0.1153618149459362,0.1019356422612491,-0.0009334012836916,0.0975461276733226,-0.2435823269188404,0.2105650901794433,0.0975505933452818,0.1572153438819208,0.0770504747980791,0.0303808206778106,0.4144141669662156,0.1750812383395778,-0.0002695127967999,0.9384312914800608,-1.8935653579759373,3.1987885577004835,0.9384313301814268,-1.5329258603794726,1.5367853116260244,3.069711172005497,4,0.04,2.51095441737923,242.39478821882983,3.065344001852007,88.06533614660822,NORMAL,102.csv,194.05,195.05,NORMAL,ANOMALY,0.6596495726495727,ANOMALY_RECORDING_SAFE_REGION
0.6059666903316975,1.293714412522651,-2.3172248005867004,3.3602007627487183,1.4285981278723483,-1.651844036579132,-0.2485867664217948,0.7539933770895004,1.4483477920293808,2.6604233145713807,4.3122673511505125,-0.0553176808357238,1.21180848544953,-3.6469109058380127,2.0969395637512207,1.21307042302602,-2.0238516688346864,-0.947838306427002,-0.0679543018341064,0.8692014217376709,1.841075086593628,3.864926755428314,-0.0211883202195167,2.1940860441136825,-5.634621858596802,5.675661325454712,2.194188349683808,-3.552863800525665,-1.5136915743350985,-0.3306995630264282,1.5738145485520365,3.407364571094511,6.960228371620176,2.656074201834739,1.127902837312246,0.4999878055559299,5.965019490045409,2.885635974281763,1.08724777529018,1.8182824979430925,2.513639606350166,3.3455721263559117,4.785011028301315,3.697763253011135,0.0128684769985266,0.2774178077125372,-0.6585122346878052,0.5630340695381164,0.2777161099689607,-0.142053550155484,0.1367334885650482,-0.5187158405780792,0.1048549406230449,0.1971680958140662,0.0331766770763497,0.0809108214307817,-0.1261435765773058,0.1947742357850074,0.0874485730382848,0.3145092979595966,0.1572661761684012,0.0868726924560495,0.758798189884981,0.3516372401633094,-0.0003800200127952,1.4079950417798566,-3.551907895978363,4.590535630797072,1.4079950930638463,-2.241941072286779,2.150294736089296,4.392235808376075,4,0.04,3.3089452882106705,832.689497606906,12.364874866966892,198.24501820918695,NORMAL,95.csv,161.09,162.09,NORMAL,ANOMALY,0.6544237167778353,ANOMALY_RECORDING_SAFE_REGION
0.16627801349,0.2470208099191853,-0.481654525,0.902689755,0.2977711508916049,-0.24757261425,0.0157263745,0.1540913135,0.31773939775,0.5534219825499999,0.8009945967999998,-0.0534632158399999,0.1686909090692864,-0.698895454,0.331145287,0.1769602730857315,-0.3110181567,-0.14690601825,-0.065226316,0.05986320925,0.19787120835,0.5088893650499999,-0.31193118898,0.286522327621806,-1.236766458,0.270882815,0.4235517806411561,-0.85609828555,-0.456315525,-0.271601349,-0.1184949577499999,0.0744409727999998,0.9305392583499998,0.4937558366456493,0.2357623405392314,0.0927833917314026,1.2475557508804538,0.5471551036389788,0.1953963983028269,0.3203295306333502,0.4553934322613787,0.6350590926476913,0.9172116806374576,0.7218152823346309,0.00677999222,0.0322985754450803,-0.097127501,0.120951228,0.0330025191505861,-0.0716385561199999,0.0507494206860986,-0.184633877,0.027519459,0.0877928608881895,0.0057512992799999,0.0219648332625445,-0.052351111,0.058948452,0.0227053153173328,0.0840051967408811,0.0474911671514101,0.0144441104171853,0.199650665533683,0.0965001763567161,0.0020550911343363,0.220119689829288,-0.539538532329725,0.5738134500625242,0.2201292830363838,-0.3765174884351746,0.4015769676575758,0.7780944560927503,4,0.04,0.7537999142348044,29.937870743818163,0.9312284036877324,4.845690125011241,NORMAL,57.csv,13.03,14.03,NORMAL,ANOMALY,0.7123293650793651,ANOMALY_RECORDING_SAFE_REGION
0.015431185811758,1.5183514915749006,-3.459489345550537,4.607268810272217,1.5184299040335325,-2.1498695254325866,-1.0687091052532198,0.0627091825008392,1.0699626579880714,2.4768769204616548,4.626746445894241,-0.0223309588432312,1.425078190436172,-3.873278617858887,3.563297748565674,1.425253142631053,-2.4412544131278997,-0.975327730178833,0.2233183383941649,0.933606743812561,1.863142919540405,4.304397332668304,0.1141249740123748,1.2117228748330822,-2.761455535888672,3.02642023563385,1.2170853852902326,-1.949383708834648,-0.712775781750679,0.15541972219944,1.1269033327698708,1.96612893640995,3.9155126452445983,2.233179788413692,0.9116911548055232,0.6477544121443605,4.726415557280077,2.412109601392534,0.8723638039526301,1.6242769011125135,2.1457211448457065,2.7107437600293807,3.85582557238556,2.983461768432929,-0.0080142404921935,0.3067809601754602,-0.701211678981781,0.682183250784874,0.3068856229555957,-0.0072931145226466,0.1281817498248195,-0.385150246322155,0.3457494676113128,0.1283890591428765,-0.00304149593506,0.1218170987897621,-0.2787376046180725,0.3094030022621155,0.121855062492609,0.3106640993546111,0.1702909560478862,0.0288079771751426,0.7131072587331024,0.3542755881224598,-0.0235352633858621,1.2940150874455378,-3.4202791658850424,3.0919594268427386,1.2942290968601058,-2.1894457947488046,2.1613921202681805,4.350837915016985,4,0.04,2.4932357688663846,581.8272729130049,12.551119233951477,167.50289551593252,NORMAL,91.csv,73.09,74.09,NORMAL,ANOMALY,0.8101367020356426,ANOMALY_RECORDING_SAFE_REGION
-0.1783255983889103,1.2705106463203035,-3.459489345550537,2.490800976753235,1.282964271308441,-2.445370161533356,-1.0105324015021324,-0.0649110451340675,0.6008264347910881,1.8812105208635328,4.326580682396888,-0.1162103462219238,1.3896377371405642,-3.873278617858887,3.563297748565674,1.3944883954533889,-2.492445945739746,-0.8665857315063477,-0.0344352722167968,0.7449169158935547,1.8513019561767576,4.343747901916504,0.1017524871230125,1.413919914431909,-3.460014581680298,3.559739470481873,1.41757648578934,-2.0771231919527056,-0.8222310394048691,0.1077592074871062,1.0488801747560503,2.3031656667590137,4.380288858711719,2.1537906915840725,0.98046109378028,0.2455350967929973,4.335404767560746,2.3664569084542872,0.7040859792076921,1.470321087168527,2.0747209079875404,2.8336206603286165,3.9706011783423194,3.266515199134626,-0.007151088315004,0.3012084448951953,-0.701211678981781,0.682183250784874,0.3012933211013329,0.0061737050637893,0.1254983030507052,-0.385150246322155,0.3457494676113128,0.1256500644759934,0.0102787160748266,0.1284923857965277,-0.3775755167007446,0.3094030022621155,0.1289028518374618,0.3068792226760704,0.1703135107519472,0.0288079771751426,0.7131072587331024,0.350972291292237,-0.026725397500437,1.322019919383037,-3.4202791658850424,3.0919594268427386,1.3222900264756927,-2.2700081571070543,1.90209181462458,4.172099971731634,2,0.02,2.1816140759766736,560.0118299571022,12.318154925492289,174.84509141170884,NORMAL,91.csv,72.59,73.59,NORMAL,ANOMALY,0.7720399980813261,ANOMALY_RECORDING_SAFE_REGION
0.0190381684526801,0.9432560550733357,-2.294250011444092,2.2424567341804504,0.9434481635418792,-1.359123235940933,-0.5935196131467819,-0.0394791662693023,0.5874624606221914,1.7369828969240189,3.096106132864952,-0.151410813331604,1.1069881858901167,-3.592690944671631,2.3680191040039062,1.1172949825780252,-2.2575927615165714,-0.7158089876174927,-0.0008885860443115,0.6759113073348999,1.2453657388687132,3.502958500385285,0.0019636729359626,1.5378281971669312,-4.509358882904053,3.532813549041748,1.537829450886246,-2.333030843734741,-1.0911910086870191,0.0041522830724716,1.1574426516890526,2.632463499903678,4.965494343638419,1.899654127053222,0.9458732118880048,0.1248004910340888,4.957915816872136,2.122112611384624,0.6976289096016502,1.3102231572392569,1.715867414462691,2.426005341276887,3.7342881491506494,3.036659239549,-0.0069088805670035,0.222621784341282,-0.6247619539499283,0.5705476999282837,0.2227289642008542,-0.0117796108209586,0.1012350770915725,-0.2327394783496856,0.2275471277534961,0.1019181046960248,-0.0379475311453861,0.0718017457201893,-0.1853974610567093,0.1330158058553934,0.0812127194994526,0.2155937747218486,0.141810865833676,0.0319700910512184,0.6459939464115299,0.2580523151752606,-0.0080115796160276,1.2430015223981423,-2.777830554348609,3.7277313583007103,1.2430273408465495,-1.856673728300164,1.84242921597421,3.699102944274374,5,0.05,3.058261689818914,450.3361935397667,6.659099736731209,154.51169700920445,NORMAL,95.csv,16.59,17.59,NORMAL,ANOMALY,0.5252782446311859,ANOMALY_RECORDING_SAFE_REGION
0.5161016678158193,1.122139890964983,-3.249407172203064,3.0686028003692627,1.2351351611937755,-1.349250105023384,-0.050025338307023,0.6154710352420807,1.3541907221078873,2.2430676877498623,3.5923177927732466,-0.1547012782096862,1.000172412877366,-2.6179685592651367,2.538985252380371,1.012065877777056,-1.845078158378601,-0.802474856376648,-0.001671552658081,0.5828348398208618,1.2729973554611205,3.1180755138397216,0.0864354038238525,1.0853232043972278,-1.9084277749061584,3.075327157974243,1.0887596323510802,-1.6444357454776763,-0.7260276973247528,0.127574473619461,0.7477615848183632,1.909854817390442,3.5542905628681183,1.8001826965982668,0.7032609780751865,0.386058559362632,3.5308769841518446,1.9326752816795365,0.7513576885860221,1.2326592275438288,1.7989273619932904,2.235067911478313,3.0768736532870147,2.3255159647009926,-0.0085490523581393,0.1938127686677984,-0.5834369540214539,0.4633409380912781,0.1940012257561785,-0.0310945444171011,0.0831219482000412,-0.2622136957943439,0.1492037231102586,0.0887475575161222,-0.0055280207936011,0.0871487595771049,-0.2822500735521316,0.2368628203868866,0.0873239102979391,0.2008501919630177,0.1131250204778706,0.0269291955206686,0.5986280493506213,0.2305169622168826,-0.0044908967350428,0.8781199448498964,-1.913965593619141,2.328374302132368,0.8781314284870289,-1.2985466517003783,1.5371176399755506,2.835664291675929,3,0.03,1.7306942875535778,373.52337444150754,5.313806986969972,77.111480569667,NORMAL,95.csv,7.59,8.59,NORMAL,ANOMALY,0.5841089743589744,ANOMALY_RECORDING_SAFE_REGION
0.1426752059161663,0.5228361388463961,-1.087881624698639,1.123380422592163,0.5419537272378782,-0.7311093717813492,-0.2720846142619848,0.1402886062860488,0.5277760773897171,0.9758385270833968,1.706947898864746,-0.019515643119812,0.385129284612164,-0.9357686042785645,1.2270512580871582,0.385623425367621,-0.5993280410766602,-0.2795834541320801,-0.0363390445709227,0.1814403533935546,0.6172780990600586,1.2166061401367188,0.0666030740737915,0.6222442107447258,-1.4210991263389587,1.9969733953475952,0.6257985516772995,-0.8622513055801392,-0.3497576117515564,0.0353341102600097,0.4343011528253555,1.0779797852039334,1.9402310907840723,0.8557013096287495,0.3190899005614789,0.0860503061709451,2.005374549036488,0.913259599424332,0.3630766074591721,0.6167127034896522,0.8821032563595761,1.0586349839544305,1.3417865877165047,0.9787099802573328,-0.003777893245613,0.0822739357159949,-0.1931859888136387,0.184328444302082,0.0823606275812351,-0.065111466013739,0.0380812121145959,-0.1430950760841369,0.0204639707226306,0.0754299789379206,-0.0029135195240887,0.0274758566524867,-0.0622776642441749,0.0793207913637161,0.027629898566684,0.1084005555018287,0.038544591836602,0.0223795670854671,0.2298574569293927,0.1150494067475157,5.543548353922567e-05,0.4649027235196906,-1.733343804271856,1.2127653062438934,0.4649027268247829,-0.7569307167769582,0.8113193798715339,1.5682500966484922,2,0.02,1.149673239407738,83.40430959406913,1.3236365992955317,21.61345454091187,NORMAL,95.csv,180.09,181.09,NORMAL,ANOMALY,0.5907666618217587,ANOMALY_RECORDING_SAFE_REGION
-0.0092814480513334,0.6309239720940103,-1.692384958267212,1.5645605325698853,0.6309922375440232,-1.0405519649386406,-0.414476029574871,-0.0009299218654632,0.3908147867769003,1.09061666727066,2.1311686322093006,0.0197057247161865,0.3811491364582001,-1.1395368576049805,1.033322811126709,0.3816581976185259,-0.5849346160888672,-0.2229126691818236,0.0176331996917724,0.2737617492675781,0.5945278882980346,1.1794625043869018,0.1800579996407032,0.6235851903195305,-1.7171756029129028,1.3878417611122131,0.6490603768683285,-0.8145287424325942,-0.1754142716526984,0.1601709872484207,0.6366496905684471,1.1567095041275022,1.9712382465600964,0.8973599559777478,0.3997982814849333,0.1373164365527598,1.897904200984793,0.9823917530551096,0.2995231959922996,0.5983218506777856,0.8424767960970656,1.181340838345066,1.6316026278289997,1.3320794318367,0.0019956952333886,0.0675688762753635,-0.1621845990419387,0.1768453530967235,0.0675983419957912,-0.0113892682552395,0.0670780255641373,-0.1753181871026754,0.1618791650980711,0.0680380551233857,0.0075835807921248,0.0435368682032051,-0.0875063790008425,0.1085506707429885,0.0441924155322374,0.0939865846541386,0.0481477339152861,0.0233506003792157,0.2273550753169304,0.1056015263910838,0.0065916104716837,0.5550185950061077,-1.597828832646967,1.3804179467170026,0.5550577358538157,-0.8789095786232713,0.8889264991781614,1.7678360778014328,3,0.03,1.0005442450070454,96.50935564706916,1.1151682376126768,30.808909013116427,NORMAL,102.csv,218.05,219.05,NORMAL,ANOMALY,0.5465318002612002,ANOMALY_RECORDING_SAFE_REGION
0.4038323642299999,1.241166413053376,-2.997794628,4.106961131,1.3052105743102815,-1.31358818735,-0.3409969459999999,0.476325173,1.22873455675,2.2684596478000003,3.58204783515,-0.0344077935499999,1.0018583764637712,-4.600396156,2.241743565,1.0024490524448628,-1.3331005808999998,-0.66689240925,-0.0689983365,0.5958520172499999,1.63901550775,2.97211608865,-0.0798989332399999,1.5335531926583197,-2.861250639,3.057292819,1.5356331704692416,-2.4518869195,-1.34773214175,-0.2595655285,1.3456416095,2.4888943983500003,4.94078131785,2.0387895725433416,0.9539313702635696,0.2895301245926159,5.778332348141396,2.250921584659136,0.6746637582267253,1.4243093572150711,1.938099933931596,2.5795389870680543,3.680818255031052,3.006154496804327,0.0033386816399999,0.2046946503038551,-0.511477071,0.397734058,0.2047218763545089,-0.07146781926,0.1038362589223953,-0.2866483,0.147981995,0.1260540275309708,-0.0150022314,0.0622158882735049,-0.171011594,0.115850505,0.0639990914048035,0.225323890853993,0.1054783979113627,0.0485265647519687,0.5369516112186153,0.2487901690492009,-0.0135115504065499,1.1162291675081464,-2.843993323467672,3.6133875749753663,1.116310940728576,-1.7874436142036447,1.7345737230617049,3.5220173372653494,4,0.04,3.739542775598055,506.66479802843935,6.189654821552996,124.61501163903186,NORMAL,48.csv,16.18,17.18,NORMAL,ANOMALY,0.6655858394733659,ANOMALY_RECORDING_SAFE_REGION
-0.149330315887928,1.105994783336377,-3.243119716644287,2.7418007850646973,1.116030467330739,-1.9446243524551392,-0.7288574203848839,-0.08796688914299,0.5126652754843235,1.4171932235360143,3.3618175759911537,0.0056639528274536,0.94670158125888,-2.1898555755615234,1.910792350769043,0.9467185243353462,-1.7443111538887022,-0.5972203016281128,0.074742317199707,0.6324882507324219,1.5517823219299316,3.2960934758186338,-0.0276974061131477,1.2622170813515252,-3.274880170822144,3.321746945381165,1.262520933197133,-1.6869619473814963,-0.9948635697364808,-0.2149275094270705,0.9746997132897376,2.213282239437104,3.9002441868186,1.7760071410267917,0.7625993116394506,0.2091954904363395,3.7923823182781886,1.9328111845421223,0.8230020424126658,1.2400580985616156,1.6644493989540914,2.215883483064517,3.0935612771616507,2.270559234748985,-0.0080420344431913,0.2615087074711513,-0.6966912895441055,0.6606502681970596,0.2616323343954597,-0.0071303192537161,0.0958228876938082,-0.2304487358778715,0.2874118722975254,0.096087810145929,-0.0022861616069421,0.0964610001253782,-0.2388481311500072,0.2616333782672882,0.09648808776259,0.2513061815531901,0.1544004528914798,0.0197020956886839,0.7013434261261737,0.2949479559853552,-0.0129609070532654,0.984611366874768,-2.90750794096758,2.4189286954818643,0.9846966684673216,-1.5477363634178785,1.5658053233839129,3.113541686801791,4,0.04,2.0163751772513967,373.5759075091122,8.699429673993905,96.96275288906422,NORMAL,91.csv,69.09,70.09,NORMAL,ANOMALY,0.5321182169341679,ANOMALY_RECORDING_SAFE_REGION
0.1760695840045809,0.4897817105609953,-0.8949131071567535,1.3383299112319946,0.520467695838657,-0.5621375031769276,-0.2035882361233233,0.1941337026655673,0.5499796606600285,0.940994255244732,1.5031317584216597,0.0120206975936889,0.3439977007472539,-0.7902235984802246,0.8342056274414062,0.3442076630321239,-0.4956249952316283,-0.2068216800689697,-0.0327439308166503,0.2182437181472777,0.6712446928024292,1.1668696880340574,-0.1363860386610031,0.4829601245080802,-1.3933340311050415,0.9355060458183287,0.5018482174985791,-0.9408972978591916,-0.4423153698444366,-0.1298200488090515,0.1901703178882598,0.6399269938468933,1.580824291706085,0.7378166002933334,0.3111974219683151,0.0659296915662903,1.6512503039586914,0.8007603705904396,0.2645824468109644,0.5087375485070996,0.7434630403158607,0.968120985952338,1.3268027415450916,1.0622202947341273,0.0055683379470574,0.0661302889997058,-0.1663384795188904,0.191872626543045,0.066364309012279,-0.0157257973559826,0.0386277190337406,-0.0919656917452812,0.0853683520108461,0.0417061312067067,0.0029373432609136,0.0270337803732691,-0.0517707914113998,0.0689360909163951,0.0271928900027669,0.0752236662940909,0.0349925161554028,0.0139658109849198,0.2044712472134243,0.082964306527632,0.0015171217209544,0.4269682824241275,-1.2702226159253132,0.9526127791403244,0.4269709777660839,-0.7216706129267698,0.7573173832203601,1.47898799614713,3,0.03,0.913433703665358,64.12171711081382,0.6883076157610885,18.230421585452568,NORMAL,95.csv,179.09,180.09,NORMAL,ANOMALY,0.6525263256853281,ANOMALY_RECORDING_SAFE_REGION
-0.0789867409,0.731182562502833,-1.791159093,2.131037176,0.7354364996015721,-1.2381534098,-0.59008467375,0.0014476385,0.32889842275,1.0089717956999995,2.2471252055,-0.0684064865,0.520323178710607,-1.148451805,1.206512451,0.5248005885084208,-0.8649762627,-0.494552612,-0.0961866375,0.251511216,0.8167026523499998,1.68167891505,0.06283441213,0.658262512805806,-1.999374628,1.484465122,0.6612546401448816,-1.1035285223999998,-0.338575356,0.1520964485,0.4780848675,1.001091160099999,2.1046196824999988,1.0027800941292604,0.4979681561869658,0.0982518534838557,2.6792648904181084,1.1196160957034045,0.3751984008395465,0.5995780486303788,0.9074778600144028,1.2879795974210968,1.8958737612527845,1.520675360413238,-0.0065154835999999,0.0805107521383349,-0.2001193,0.2227213,0.0807739607573027,0.02004003406,0.0612334602796092,-0.120645795,0.188146349,0.0644293382159124,-0.00337105386,0.0430270401928103,-0.122295129,0.097738364,0.0431588947017962,0.0971615402901048,0.0556587606733906,0.0107123202015422,0.2452520104243634,0.1119743834599836,-0.0110972133480083,0.6137800785913493,-1.6378225464099292,1.5638683019768598,0.613880389831516,-1.1200211037131442,0.7865609474841754,1.9065820511973195,5,0.05,1.676484796288848,125.35402017581346,1.2538262551243458,37.68491330196942,NORMAL,37 - Normal Road.csv,20.59,21.59,NORMAL,ANOMALY,0.5135882835959998,ORIGINAL_NORMAL
-0.31854422901,0.4733081450012933,-1.236464977,0.811745092,0.570518208263453,-1.0445534165,-0.6647243949999999,-0.348579023,-0.00854200125,0.5257869487,1.5703403652,-0.0046201992599999,0.4244681409397559,-0.947649956,1.247223854,0.4244932848868808,-0.6303714276000001,-0.32992172275,-0.008457422,0.232328057,0.7611272813499999,1.39149870895,1.29618169977,0.4774387824731308,0.345014848,2.765797138,1.3813163250421938,0.5884734217500001,1.0429472775000002,1.261564478,1.57262332,2.17829841355,1.5898249917999998,1.48111850892832,0.4690504527363945,0.3870955262142962,2.911108937802047,1.5536152563303012,0.6863641487335289,1.1992274284795397,1.4474872124950446,1.755439165018803,2.263709971642632,1.5773458229091029,-0.00785418873,0.0533902079432086,-0.172508213,0.111940971,0.0539648272935762,0.03903975691069,0.0395266095725801,-0.077885259,0.134084817,0.0555558771323876,0.00541195656,0.0303847628862833,-0.062460924,0.090896679,0.0308629727904326,0.0767068851453366,0.0326685617916917,0.00873157414184,0.1743909946661131,0.0833737438180477,0.0101076396292687,0.5490585529351616,-1.5727340574689437,1.4459880364925843,0.5491515810139572,-0.8030327252094908,0.8947193361546123,1.697752061364103,3,0.03,1.4299904288737273,241.37203647022676,0.6951181158237453,30.15674589301289,NORMAL,37 - Normal Road.csv,30.59,31.59,NORMAL,ANOMALY,0.7199113924050632,ORIGINAL_NORMAL
-0.5072646749764681,0.9149791931697716,-2.8913466930389404,1.2602646946907043,1.0461856309530293,-1.9912682473659515,-1.2163278758525848,-0.5393052473664284,0.2322684153914451,1.0107777059078218,3.002045953273773,-0.0830913019180297,0.7423262703547602,-1.8348264694213867,2.128578186035156,0.7469621517274095,-1.236903142929077,-0.4899554252624511,-0.1012253761291503,0.3967351913452148,1.1709105491638183,2.4078136920928954,0.0303862330317497,0.9290992635695058,-2.3241772651672363,2.0501184463500977,0.9295960223254282,-1.3917020082473754,-0.633046492934227,-0.0218222737312316,0.7548650205135345,1.4263098448514937,2.818011853098869,1.464661287384497,0.6094037319267713,0.4107814525135956,3.083955638971054,1.5863812893655445,0.5455465655582518,1.0340831892172837,1.360851161641568,1.9075487931795965,2.477888684262398,1.9323421187041463,-0.0055115273743285,0.1243766108194359,-0.2808145374059677,0.2753167599439621,0.1244986676753104,0.1428983762285206,0.0558614839225402,0.0066278826445341,0.2805396467447281,0.1534289780803354,-0.0341442868017765,0.0498267571140095,-0.1484401412308216,0.0986241191625595,0.060403129436317,0.1972668453027226,0.061438581996296,0.0790820717987962,0.3853386995274208,0.2066129415438537,-0.0006212589496632,0.6636274554007008,-2.1550650590381,1.6606318889293958,0.6636277461983424,-0.9414641834958308,0.9871884364376796,1.9286526199335103,4,0.04,1.6192943515865568,251.66055952490876,4.268890761340392,44.04017855242916,NORMAL,95.csv,149.09,150.09,NORMAL,ANOMALY,0.6167682658933334,ANOMALY_RECORDING_SAFE_REGION
0.4018716320209205,0.7584673186786206,-1.6465029120445251,2.116196930408478,0.8583551025809156,-0.8544133689254523,-0.1443737400695681,0.3811635910533368,1.0462814569473269,1.5617402642965317,2.416153633221984,0.0305519914627075,0.6995738995437534,-1.5960469245910645,1.858898639678955,0.700240719399544,-1.272005009651184,-0.3450815677642821,0.0756411552429199,0.4225541353225707,1.1113664150238034,2.3833714246749875,0.4132784143090248,0.7730741722681009,-1.1009549498558044,2.2638848423957825,0.876608649034329,-0.7735808372497559,-0.1629776805639267,0.4064793288707732,0.8923872038722038,1.7693798840045922,2.542960721254348,1.2916602785256768,0.5719851358843586,0.1957243199664465,2.637279316475582,1.4126405313432275,0.447205272420388,0.8022329626567635,1.2305303330542392,1.7262990860323908,2.2674669119628525,1.8202616395424644,-0.0048038404518156,0.0959793628787352,-0.237198793888092,0.2284634299576282,0.096099505626691,-0.0607553892839641,0.0639797864312516,-0.2237292267382145,0.0844520581886172,0.0882305525248176,0.0213875976004855,0.0511055505007444,-0.0934623107314109,0.150853057205677,0.055400420784543,0.1307825412886542,0.0546340452256182,0.024362517603843,0.2571420181281221,0.1417355001530437,-0.0004278200514916,0.7741995623375975,-1.80544525524044,1.8179934402529396,0.7741996805435429,-1.3921649294765592,1.3498493028815173,2.7420142323580765,2,0.02,1.3456190379499051,199.55532707936763,2.0088952003633462,59.9385145353724,NORMAL,95.csv,186.59,187.59,NORMAL,ANOMALY,0.5517365632105651,ANOMALY_RECORDING_SAFE_REGION
-0.00268642395,0.3910465010017697,-1.199482143,0.658392608,0.391055728534139,-0.7209992301,-0.26954910125,0.093634842,0.271326212,0.5430557575499999,1.2640549876499998,0.06543420317,0.1940866536292918,-0.522143841,0.47730875,0.2048200772910447,-0.28518438385,-0.03989887225,0.0886757374999999,0.1837564705,0.3656574249999999,0.6508418088499999,-0.11704646436,0.4191280804294125,-1.891876936,0.73227191,0.4351645925665607,-0.75746303185,-0.359888293,-0.108225971,0.14912281225,0.5491789979499998,1.3066420298,0.5617097788941315,0.2621568114682555,0.1952584052139867,1.9082385238540684,0.6198742368452624,0.2321012914790742,0.3898891061494078,0.5422438076577718,0.6919881103623721,0.8977197481125976,0.6656184566335234,-0.0087704923499999,0.0452033065737162,-0.118935372,0.120645796,0.0460462860745444,-0.0094476348499999,0.0482917822426545,-0.142667469,0.098990639,0.0492072559327473,-0.00725585901,0.0338257220900865,-0.108917192,0.072387477,0.0345951870191326,0.0674141325878023,0.0345510664091957,0.0126542736856276,0.1685435882144536,0.075752501361859,-0.0022373841432745,0.3486483105682108,-1.567346392554923,1.0676051851486106,0.348655489487649,-0.5050581864704888,0.4094318856371625,0.9144900721076512,4,0.04,1.346528744959937,38.42440695044965,0.5738441462578456,12.156065034987217,NORMAL,15.csv,29.09,30.09,NORMAL,ANOMALY,0.5956491157510896,ANOMALY_RECORDING_SAFE_REGION
-0.05066965977,0.8333011405127609,-1.925227106,1.806914091,0.8348402273495663,-1.1858133261,-0.5783467852499999,-0.0947259365,0.2541576885,1.61789821405,2.80371154015,0.1487894933899999,0.5793133858821454,-1.450494766,1.74121809,0.5981156346439109,-0.8363379718499999,-0.10169816,0.094045639,0.32933795475,1.39272620675,2.2290641786,0.28885293905,0.5013375781377609,-1.135783434,1.505096078,0.5785977770877265,-0.4018310491999999,-0.051094711,0.2251191215,0.6416997165,1.16576597685,1.5675970260499998,0.9857396459319224,0.6463692874011195,0.1352208829826845,2.515281747230054,1.1787603256207015,0.2178367307521719,0.3652291252348096,0.9022595143108288,1.5259650986635294,1.979759604906292,1.7619228741541195,-0.03295310452,0.0433859590393534,-0.14153737,0.053297953,0.0544816348806687,-0.00994732404,0.0244752512621874,-0.068508485,0.069791302,0.0264194470022362,-0.00234205637,0.0483226195019174,-0.128128886,0.113315417,0.0483793425293001,0.0667226800439187,0.0394319726934713,0.0136337167255639,0.169949676759263,0.0775035257439416,0.0081208131103753,0.3174511961779128,-1.216514787732216,0.8519460455835957,0.3175550496533811,-0.5143297417773237,0.4596619080681255,0.9739916498454492,3,0.03,1.5295421012981318,138.94759052574224,0.6006796502741825,10.084120956036132,NORMAL,15.csv,26.59,27.59,NORMAL,ANOMALY,0.835,ANOMALY_RECORDING_SAFE_REGION
-0.3035300458595156,1.5006126635368136,-4.238735198974609,4.4403159618377686,1.5310025652187946,-2.6379266500473024,-1.2818749397993088,-0.3786382563412189,0.7763229012489319,2.1157682836055747,4.753694933652877,0.0322397637367248,1.0493282052495507,-3.415727138519287,2.315497875213623,1.0498233588075867,-1.4650194406509398,-0.7158197164535522,0.053546667098999,0.792155385017395,1.7723054409027097,3.2373248815536497,0.0417245423793792,1.3174427671736109,-4.43799901008606,3.8259336948394775,1.318103327594172,-1.7518190056085583,-0.941565342247486,0.0293909460306167,0.820463702082634,2.2718552201986304,4.023674225807189,2.047960729687051,0.9946613349673772,0.4254796786970281,5.896833860384726,2.276728864318147,0.7337288695139513,1.433039140268271,1.9294958907260351,2.4851448924856308,3.797419838354593,3.0636909688406413,0.0011701119107892,0.2847800657868495,-0.8447649002075195,0.605977863073349,0.2847824696701785,0.007456215795828,0.1071468715828107,-0.2448040649294853,0.3190241381525993,0.1074059925887624,0.0128361018721479,0.1080585867901762,-0.2276998423039913,0.299781896173954,0.1088183058605592,0.2810003458082428,0.1597414524205712,0.0539386463033554,0.8858478489956592,0.3232313814681143,-0.0069319701331271,1.2967635420912065,-3.112880186793393,3.4787571731621547,1.296782069704412,-2.02982176743423,2.1552626469902263,4.185084414424456,4,0.04,3.848873130697675,518.3494321619401,10.447852596578564,168.1643736306859,NORMAL,91.csv,71.59,72.59,NORMAL,ANOMALY,0.7843700700447875,ANOMALY_RECORDING_SAFE_REGION
0.0667640812695026,1.4099013046620232,-3.5007930994033813,4.607268810272217,1.4114811835215642,-1.9192884445190432,-0.8715837858617306,0.1112746149301528,0.8585808277130127,2.48874408006668,4.408032524585723,0.0874171042442321,1.1631494701769225,-3.029704093933105,2.2910280227661133,1.1664297836077844,-1.947905683517456,-0.6027710437774658,0.192284345626831,0.8825984001159668,1.864981961250305,3.812887644767761,0.1246248698234558,1.228501997558482,-2.761455535888672,3.47599720954895,1.234807076503732,-1.6884707182645795,-0.7756792306900024,0.1017418950796127,1.0920619294047356,2.103706288337708,3.792177006602287,2.051057411756206,0.818993028899736,0.4685043348945454,4.726415557280077,2.2085257724795597,0.8921996934669199,1.529669468459802,2.051902920015617,2.571291922810473,3.514941234910031,2.6227415414431112,0.0016789616076275,0.2605810836737567,-0.6530144661664963,0.6659953147172928,0.2605864925138471,-0.0114827307758678,0.0997760874672597,-0.2493244647979736,0.3631285607814788,0.1004346590393243,-0.0126482606713689,0.1115506638691581,-0.2854571133852005,0.2259588807821274,0.112265440397572,0.2709204143478714,0.1311415228455621,0.0670742404954384,0.6742087990176145,0.3009916442771716,-0.0005753529119241,1.176159120876044,-2.4564010672329326,2.5588331632372032,1.176159261601456,-1.7920052084199527,2.1613921202681805,3.953397328688133,2,0.02,2.6753581455238704,487.7586087706433,9.059596992467542,138.3350608650882,NORMAL,91.csv,73.59,74.59,NORMAL,ANOMALY,0.7445079704595828,ANOMALY_RECORDING_SAFE_REGION
-0.2443488243222236,0.8686952834049135,-2.8021408319473267,1.8637837171554563,0.9024066950979454,-1.6338288128376006,-0.7866730466485023,-0.2366074658930301,0.3673762269318103,1.071278778463602,2.7051075913012026,0.005719084739685,1.1342476376027846,-2.415455818176269,3.3666634559631348,1.1342620558485403,-1.5985477447509766,-0.7192312479019165,-0.1811590194702148,0.8059000968933105,1.9321887493133545,3.530736494064331,0.1199270796775817,1.2754708818893006,-3.053240299224853,3.559310913085937,1.2810965908109593,-1.954877066612244,-0.7778041958808899,0.1093445718288421,0.9436444714665414,2.364256736636161,4.3191338032484055,1.7734817738899276,0.7725665844204316,0.3378061871336265,3.847776885246408,1.9344499811788405,0.6923149442537823,1.2341099178653188,1.59187595275861,2.301342800786017,3.2856561108823445,2.593341166628562,-0.0024391829913947,0.231351837012777,-0.6123919367790223,0.4526508003473282,0.2313646950224948,0.0189377245327923,0.0868456728835551,-0.2240346595644951,0.234724786132574,0.0888864911506658,0.0104845775492867,0.0897030209859792,-0.2707658141851425,0.264657162129879,0.0903136664098963,0.234385648874627,0.1210386564447388,0.0167414288350578,0.6275275954473458,0.2637934585093563,0.0064762738805425,0.912370278945598,-2.5978132148589363,2.01621281584577,0.9123932639090688,-1.3026364533089831,1.642287792628064,2.944924245937047,4,0.04,2.0742951113564803,374.2096729682816,6.958698875232751,83.24614680266438,NORMAL,95.csv,4.59,5.59,NORMAL,ANOMALY,0.504991695999341,ANOMALY_RECORDING_SAFE_REGION
-0.0386054401518777,0.7671246333958294,-1.9306080341339111,1.957648992538452,0.7680954258241651,-1.5562837570905683,-0.3954856246709823,0.0271237641572952,0.353738535195589,1.1244873702526093,2.680771127343178,0.067525897026062,0.6999644286867086,-1.6209087371826172,1.950547218322754,0.7032140130827063,-0.8169870138168335,-0.3987658023834228,-0.0632581710815429,0.4368337392807007,1.514208221435547,2.3311952352523804,-0.7170234644412994,0.6654430197232942,-1.8450490236282349,1.742448791861534,0.9782315988853866,-1.538191670179367,-1.1727849170565603,-0.8584208786487579,-0.4566967263817787,0.4914176419377324,2.0296093121170995,1.304823500154567,0.5821110082021599,0.269190849997986,3.002974685130571,1.4287818561368109,0.5383692612333693,0.8476856793389594,1.271158226223809,1.6763792707337906,2.200321038343945,1.6619517771105763,0.0371436334230238,0.1902583865002886,-0.2619082704186439,0.6302597522735596,0.1938502079894607,0.1371907606280874,0.1822126519597553,-0.144774954766035,0.8538362234830856,0.2280849739371713,0.0093584483141312,0.0893554170859716,-0.2241262853145599,0.2495382614433765,0.0898441490440875,0.2535154859719311,0.1827635848941169,0.0526735853106138,1.0090005972042535,0.3125262062466659,0.0030050898108551,0.4750563773514122,-1.5240745712881187,1.8022282774318013,0.4750658819858764,-0.7663553682559756,0.7914091700326237,1.5577645382885992,3,0.03,1.698151184976004,204.141759242575,9.767262959093353,22.568759222701864,NORMAL,102.csv,131.55,132.55,NORMAL,ANOMALY,0.8110465838509319,ANOMALY_RECORDING_SAFE_REGION
-0.02823398331,0.3573305063217748,-0.907737285,0.902689755,0.358444205646744,-0.63580911275,-0.2501235137499999,-0.0056065995,0.21452005725,0.4966088781499999,1.1324179908999998,-0.04335023406,0.2200829106916039,-0.698895454,0.349889278,0.2243116813087211,-0.3938155173,-0.1833893065,-0.0399239064999999,0.1267166137499999,0.2704161167999999,0.6642316340999999,-0.38665648966,0.3632081697896255,-1.340080976,0.518158823,0.5304935584888125,-0.9986695675,-0.60025440125,-0.41510433,-0.1203766915,0.1586195137999997,1.1572890813,0.6226406301998264,0.2693325827963574,0.1753816134652014,1.445084915810273,0.6783961928927621,0.252717858558572,0.4037036116038854,0.5716085492796852,0.7769756894838018,1.1111380335538386,0.8584201749952665,0.00566302537,0.0527004684315569,-0.19700389,0.123394685,0.053003860512672,-0.1102281059699999,0.0288375170837524,-0.184633877,-0.039920013,0.1139378678810923,0.00428216213,0.0301316434877941,-0.066278828,0.097188586,0.0304344024384106,0.1244771207556314,0.0349706480738796,0.0544694198495678,0.2367854612094201,0.1292961709344835,0.0002145732450464,0.3054828218284819,-0.7089502629212276,0.9296592289806536,0.3054828971873377,-0.4916935379241686,0.5092629188479268,1.0009564567720954,5,0.05,0.8224442856104466,46.02213945313937,1.6717499818319193,9.331980047396952,NORMAL,57.csv,13.53,14.53,NORMAL,ANOMALY,0.7110314785090067,ANOMALY_RECORDING_SAFE_REGION
0.0290585732460022,0.4558982942613476,-0.8949131071567535,1.1001577973365784,0.456823440061365,-0.595989353954792,-0.3338576443493366,0.0172835327684878,0.2901338543742895,0.8510772883892058,1.447066642343998,-0.0398799419403076,0.3517344932278397,-0.7902235984802246,1.0113110542297363,0.3539880838325035,-0.5058318376541138,-0.2962913513183593,-0.0784142017364501,0.1417349576950072,0.637738800048828,1.1435706377029418,-0.2105929550528526,0.5085587073338178,-1.3933340311050415,0.8635424375534058,0.5504374183528375,-1.0894383877515792,-0.536339670419693,-0.1708831191062927,0.1784300953149795,0.6333300113677979,1.722768399119377,0.7371056858137215,0.3060257805298878,0.0659296915662903,1.6512503039586914,0.798108119497505,0.3371086038006782,0.4910668327081641,0.7097503593136127,0.9721041138818634,1.3168775337436698,0.9797689299429916,0.0025955645438371,0.0648396789709348,-0.1663384795188904,0.191872626543045,0.0648916090442756,-0.0014184280403642,0.0406717471883184,-0.113009984139353,0.0919351494521834,0.0406964735260461,-0.0042491753860958,0.0256531281441639,-0.0605672419071197,0.0689360909163951,0.0260026628452298,0.071914324610389,0.0370350141445306,0.0077296727469412,0.2044712472134243,0.080890434272873,0.0030021489161333,0.4048233079504114,-1.2702226159253132,0.9526127791403244,0.4048344396886563,-0.7317185037704723,0.5314754549668249,1.2631939587372971,3,0.03,0.91414461814497,63.69765704078439,0.6543262356853995,16.38909235580283,NORMAL,95.csv,178.59,179.59,NORMAL,ANOMALY,0.7718008825750003,ANOMALY_RECORDING_SAFE_REGION
-0.26761328701,0.729626833355834,-2.632099986,1.414700925,0.7771564754521182,-1.5391433331,-0.76259030775,-0.216038823,0.207455678,0.8443284120999998,2.3834717452,0.07735952153,0.3773232627728907,-0.84330368,1.265365601,0.3851718320450374,-0.3637349371,-0.1608060595,0.02418232,0.18974924075,0.8127847198,1.1765196569,0.34866312591,0.8194346991925089,-2.265737295,2.5624336,0.8905274850390918,-0.74563097065,-0.311554529,0.404833406,0.8888048975,1.6456695292,2.39130049985,1.0810877505902452,0.6136921090187348,0.1251278390419166,2.674547914919918,1.2431286052328372,0.2850327945740328,0.5721510228997325,0.9886905362307886,1.508335034395122,2.1953476632521736,1.9103148686781408,-0.01753945782,0.0951287098113618,-0.483194038,0.240833435,0.096732125020563,0.03877708539,0.055238822541632,-0.20473133,0.165238924,0.0674906650369461,-0.0263514798,0.0565259712643342,-0.145324728,0.104885481,0.062366544837967,0.1124551581851839,0.0718019302713689,0.0331397667027462,0.510890361615236,0.1334229357837297,-0.0172683592717308,0.4498059151951194,-1.360025854201806,1.167065246416724,0.4501372652607829,-0.8048222265979642,0.7428819259472942,1.5477041525452584,4,0.04,1.5934601643296729,154.53687291481393,1.7801679793149272,20.26235575764565,NORMAL,57.csv,11.53,12.53,NORMAL,ANOMALY,0.7949841269841269,ANOMALY_RECORDING_SAFE_REGION
-0.0362112937867641,1.2286096944324276,-3.5597445964813232,2.398605942726136,1.2291432134015363,-2.171715724468231,-0.6607518903911114,-0.045751854777336,0.754389800131321,1.9391151905059807,4.110830914974212,0.1591509532928466,1.5576480005429725,-4.017521381378174,3.84195327758789,1.565757426784092,-2.431072640419006,-0.8326165676116943,-0.0990281105041503,1.2930912971496582,2.628686761856079,5.059759402275086,0.1776218520104885,1.451240908693472,-3.642755389213562,3.471430540084839,1.4620703462477755,-2.234644192457199,-0.7394123822450638,0.2088237255811691,1.174293473362923,2.285090258717537,4.519734451174736,2.242561013478027,1.0348715653577936,0.4907166616755913,6.487058383246849,2.4698257136805597,0.7295314368861188,1.6222456741322375,2.073962927152377,2.8333921410307066,4.162641113617719,3.4331096767316,-0.047261996891757,0.1689449014064246,-0.5094001352787018,0.2703076660633087,0.1754311148611414,0.0509131359394523,0.081465587385344,-0.1531743425875902,0.2163988471031189,0.0960665880482297,-0.0189621589615126,0.1005371148015553,-0.2671617060899734,0.2475529462099075,0.1023097010312453,0.1988975004542664,0.1044601581407915,0.0278274722776494,0.5555412014182767,0.2246600550292688,-0.0076064487058907,1.0121881663098038,-4.413667529471976,1.965660332321685,1.0122167465911234,-1.3036278473681444,1.6488296320429168,2.952457479411061,4,0.04,4.244497369768822,610.0039055957684,5.04721403257541,102.45827420795185,NORMAL,95.csv,151.09,152.09,NORMAL,ANOMALY,0.8219670962159489,ANOMALY_RECORDING_SAFE_REGION
-0.1931586201116442,1.00261241884151,-2.9730467796325684,2.136337459087372,1.021049418460565,-1.9206032544374465,-0.769142173230648,-0.2364221476018428,0.454571008682251,1.3739357709884643,3.2945390254259106,0.1024317693710327,0.5994055312764432,-1.8298554420471191,1.5918779373168943,0.6080947774000988,-0.8915440797805786,-0.2634259462356567,0.1404175758361815,0.5118327140808105,1.03824725151062,1.9297913312911987,0.3017315039038658,0.6646411517860356,-1.6669573783874512,1.9059070348739624,0.7299244899957505,-0.6746907100081444,-0.094010792672634,0.2487322017550468,0.6738562434911728,1.4641617789864536,2.138852488994598,1.2657474713377816,0.5856571293320879,0.1706072398115355,3.039874449702027,1.394672339417216,0.4580209635622427,0.8753658358350975,1.1522362639815693,1.6360758310516976,2.302818585989686,1.8447976224274432,0.0026597051886928,0.1010640110649745,-0.2808450907468796,0.2524704158306122,0.1010990027855471,0.2003798358715139,0.0608909886238103,0.0597731187939643,0.3992917656898498,0.2094272931579832,-0.0324503588171937,0.078091419003743,-0.2083659768104553,0.1709810495376587,0.0845653327870397,0.2383307169426119,0.0665624845894087,0.0778085926700001,0.4351469804478076,0.2474511971947088,-0.0001067146307295,0.6174117092724819,-2.131000131396604,1.4258256287574294,0.6174117184948632,-0.9284923025613838,0.9615393560671488,1.8900316586285328,4,0.04,1.7741269783642453,194.511093433549,6.123209499309469,38.11972301347802,NORMAL,102.csv,190.55,191.55,NORMAL,ANOMALY,0.7688061929434986,ANOMALY_RECORDING_SAFE_REGION
-0.5306500365585088,1.0576938528861313,-3.1547106504440308,2.483219087123871,1.1833451515651112,-2.1886783063411714,-1.2071962356567385,-0.5580466315150261,0.1612350083887576,1.145606648921966,3.3342849552631373,-0.0264657831192016,0.6481863987312165,-1.310147762298584,1.52791166305542,0.6487264794782592,-0.9671293258666992,-0.5094469785690308,-0.0327489376068114,0.4717476367950439,1.12313015460968,2.090259480476379,-0.043564840555191,0.9104726895477808,-1.8717632293701167,1.7581568956375122,0.9115143519138736,-1.4601961255073548,-0.7616816684603691,-0.0712097734212874,0.6756650172173977,1.611582174897194,3.0717783004045485,1.5006241174579316,0.6325641981312922,0.1785792971242302,3.317562266160708,1.6284993726292565,0.6718089822040894,1.0522802739501431,1.4387193901369186,1.9073355785669328,2.7903237167646857,2.1185147345605966,0.0071761339999065,0.1340364985080981,-0.3191768452525139,0.316000348329544,0.1342284613317757,0.1569519315344514,0.0891497643607643,-0.0349109206348657,0.3675267994403839,0.1805037099285633,-0.0212248021671985,0.0826633502736082,-0.2534477949142456,0.233411431312561,0.0853447227747209,0.2263493660671182,0.0815386737442953,0.0554244090675953,0.4782736972663418,0.240588010580255,0.0045215566459447,0.7815114166127235,-3.1389829690364777,2.3480847528963564,0.7815244965901762,-1.0646715819107957,1.1729294569750457,2.237601038885841,6,0.06,1.8169381487027765,265.2010206653881,5.788259083496492,61.07805387705283,NORMAL,102.csv,188.55,189.55,NORMAL,ANOMALY,0.7164273336245816,ANOMALY_RECORDING_SAFE_REGION
0.1656284522078931,0.7036016124405247,-2.1040252447128296,1.823228359222412,0.7228333232562598,-1.0185813806951045,-0.3127012141048907,0.226263292133808,0.5956072472035885,1.255330744385719,2.273912125080823,0.1731544542312622,0.6027820538914972,-1.41725492477417,1.8626575469970703,0.627159205875014,-0.6519764184951782,-0.2803391218185425,0.1702499389648437,0.5737979412078857,1.198662233352661,1.8506386518478397,0.061359227001667,0.7681863876936024,-1.9730549454689024,1.832202196121216,0.7706330391152377,-1.6074913829565047,-0.4811915159225464,0.132172554731369,0.5137035027146339,1.3497639209032055,2.9572553038597107,1.1123035917816826,0.5219891602409215,0.1033883948224841,2.6250499447226865,1.2286952281584942,0.4917827348504056,0.7001818717544882,1.0082229590829406,1.5344320106974167,1.9215538737689224,1.4297711389185168,0.0104485364025604,0.1057817734727148,-0.2863123178482055,0.4027431368827819,0.1062965451554676,-0.0168339060710495,0.0490574373533523,-0.1261741206049919,0.1129183538258075,0.0518653309377951,-0.0282430275605365,0.1037205538642017,-0.4921432018280029,0.2542113780975342,0.1074970785634754,0.1315180692063131,0.0908162289307413,0.0239505349478306,0.4993737917171451,0.1598267498416876,0.0185044423756278,0.5447300949570201,-1.9841606120852573,1.6670197727654128,0.5450443016301676,-0.7299339151772956,0.979719037225972,1.7096529524032675,2,0.02,1.512746352941004,150.96919636994542,2.55445899649574,29.70732907395172,NORMAL,95.csv,14.59,15.59,NORMAL,ANOMALY,0.5762456676083438,ANOMALY_RECORDING_SAFE_REGION
0.3788841715455055,1.739304449807768,-4.723083019256592,6.055093050003052,1.780093588710668,-1.8042092680931088,-0.6284689716994762,0.1905271969735621,1.027913719415665,3.7172231316566458,5.521432399749755,0.0163906240463257,1.1787970891999204,-3.309390068054199,3.1237802505493164,1.1789110356862529,-2.0145539045333862,-0.76725172996521,-0.0280790328979491,0.8732041120529175,1.827136158943176,3.8416900634765616,0.2865283480286598,2.077834467898557,-4.651465654373169,6.736138820648193,2.09749721578154,-3.5988764584064485,-0.9650626927614212,0.2611977756023406,1.3708177879452703,3.684373927116393,7.283250385522842,2.5236497667290654,1.609114924339248,0.3626034793506009,7.425232075852906,2.9930016680321065,0.6773581471589624,1.241548267211942,2.2280357744626023,3.375624931067718,5.524464948876273,4.847106801717311,0.0102164083353563,0.1728126385852443,-0.2976744055747986,0.5484954833984375,0.1731143640893759,-0.085972803650191,0.1295315694519187,-0.509766660630703,0.2724456898868084,0.1554662357303075,0.0342004864653062,0.0823141304675392,-0.1998444139957428,0.2370155379176139,0.0891363525677973,0.2138067701336232,0.1279464258990426,0.0285122403380765,0.643835051898918,0.2491658541118972,0.0154957731780317,1.3272916061539686,-4.14045673845421,3.32585422254658,1.3273820575678903,-2.0975066487990506,2.2816303329404968,4.379136981739547,5,0.05,4.901582309123841,895.8058984842971,6.208362285531123,176.19431267531667,NORMAL,95.csv,166.59,167.59,NORMAL,ANOMALY,0.6265544527851298,ANOMALY_RECORDING_SAFE_REGION
0.3376174309849739,1.3313908520377555,-2.732335448265076,3.974110722541809,1.3735308990316577,-1.7389074206352233,-0.5461175441741943,0.1239166557788848,1.2586781084537506,2.366946992278099,4.105854412913322,-0.0662612628936767,0.734589282895452,-1.8887052536010744,1.6167049407958984,0.7375716707582519,-1.3674252033233645,-0.5551519393920898,-0.1037509441375732,0.56251060962677,0.9519856214523316,2.319410824775696,-0.0922994381189346,1.5511882467213784,-4.765875577926636,5.146579265594482,1.553931839896337,-2.713954672217369,-0.9177100956439972,-0.2179976999759673,0.6146773248910904,2.474079604446888,5.188034276664256,1.9117985305547065,1.0910222920327133,0.242342988964818,5.890906337348638,2.2012049570958743,0.6400687011106904,1.102563284732927,1.7520394619907085,2.321059013112635,4.141176026580309,3.501107325469619,0.0374166895088273,0.1847373994712348,-0.59760901927948,0.5087892770767212,0.1884885020822081,-0.2148237331657437,0.0824586963936873,-0.5380191504955292,0.0618500581476837,0.2301057864161893,0.0284751563319878,0.1043673950132289,-0.2419024556875229,0.2822500705718994,0.1081821966405679,0.299177086735772,0.1033104389772999,0.140135063852538,0.7924621360708823,0.3165122051823374,-0.0004439263265846,1.12862572173167,-3.328441226209849,3.8053993031110553,1.1286258090372183,-2.041694501872846,1.632706829706054,3.6744013315789,6,0.06,3.979107806793932,484.5303263143449,10.017997602938603,127.37962168249162,NORMAL,95.csv,162.59,163.59,NORMAL,ANOMALY,0.8550133942741064,ANOMALY_RECORDING_SAFE_REGION
-1.1098629946099998,1.061992287975745,-4.51431179,1.21395421,1.53610659998733,-2.89547240695,-1.678315401,-0.9355383555,-0.410390824,0.3171708496499997,3.2126432566,-0.15078105211,0.5930945625420633,-1.567061424,1.111388206,0.6119608531535002,-1.1210621593,-0.55170035375,-0.1216540335,0.26722180875,0.8003348592999998,1.9213970186,-0.08248068541,1.205837782790651,-3.115658283,2.690338135,1.208655377628866,-1.89586030265,-0.90919141475,-0.174477458,0.77867749325,1.90833873475,3.804199037399999,1.8121145011599928,0.9545723801126036,0.2599783489520472,4.741370320549824,2.048161955068049,0.7408190837197222,1.0938350413501616,1.4839036439136275,2.44134163852741,3.6990582324015264,2.9582391486818045,-0.0117469296599999,0.1574973088887473,-0.452925688,0.442846417,0.1579347734466178,-0.01827066011,0.1045735627095435,-0.21487169,0.225103673,0.1061576518138093,-0.03815247474,0.0576460661351758,-0.196851172,0.092698731,0.0691279991728923,0.1838129200261092,0.0848783270533712,0.0263261632365693,0.5141588250057577,0.2024636262934749,0.0144159365578623,0.9611446900143792,-2.0800553699669013,2.5441079476485733,0.9612527942064342,-1.7722696372229447,1.502676722372213,3.274946359595158,5,0.05,2.929255819389831,419.4967394188172,4.099151997190388,92.40069343696771,NORMAL,76.csv,1.09,2.09,NORMAL,ANOMALY,0.6465777777777778,ANOMALY_RECORDING_SAFE_REGION
0.11121118478477,0.719186981080174,-1.4209606647491455,2.0174319744110107,0.7277347328363866,-1.0364293798804285,-0.4238123632967472,0.0906060189008712,0.7060648202896118,1.2343412697315217,2.2707706496119497,-0.1219997119903564,0.6112192283502086,-1.910594463348389,1.1907663345336914,0.6232759219083907,-1.0772793292999268,-0.4926536083221435,-0.1369693279266357,0.2092137336730956,0.9132896423339842,1.990568971633911,0.0189172998070716,0.6723570126810129,-1.763660550117493,1.426811933517456,0.6726230866788073,-1.0981728136539457,-0.4176263809204101,0.0738512575626373,0.5810055956244469,1.0112489476799966,2.1094217613339423,1.077837247713204,0.4569019592675796,0.1531136672881955,2.4314978834712515,1.170680371809713,0.4240704820295204,0.7365081068784577,1.039984305194518,1.4438376534414497,1.836888552442217,1.4128180704126965,-0.0121699535984516,0.0971369998158122,-0.2466061145067214,0.2804480254650116,0.0978963967866314,-0.0023912301528616,0.0524654846499387,-0.1221729554235935,0.0958141416311264,0.0525199491735941,-0.0305533185373642,0.132660966269073,-0.5297724843025208,0.1912923067808151,0.1361338945490423,0.1452325184083506,0.098904006020284,0.0243733890365419,0.5329660904034783,0.1757113735934367,0.0094875718215976,0.5554902135998229,-1.7240613560954758,1.3591744937252486,0.5555712298384851,-0.9564288366485234,0.8947494740236166,1.85117831067214,2,0.02,1.3536606357580474,137.04925329405276,3.087448681009228,30.86593914242468,NORMAL,95.csv,1.09,2.09,NORMAL,ANOMALY,0.5807525252525253,ANOMALY_RECORDING_SAFE_REGION
-0.2378362116590142,0.9130204979308596,-2.2852121591568,1.7156329154968262,0.9434895299992608,-1.5975664764642716,-0.952705718576908,-0.344007734209299,0.4911428578197955,1.3422046005725858,2.939771077036857,-0.0865659046173095,0.4663263780117168,-1.065074443817139,1.3722801208496094,0.4742931020705864,-0.8708459138870239,-0.4096473455429076,-0.0778851509094237,0.2319728136062622,0.6295140743255615,1.5003599882125855,-0.2758721089363098,0.5487390053309358,-1.4974061250686646,1.2287296056747437,0.6141823153270956,-1.1739989548921586,-0.7062392085790634,-0.2902673408389091,0.0636412501335144,0.5638843685388563,1.737883323431015,1.1203328102487244,0.4870325970925488,0.2030726420607061,2.4187327985086484,1.2216162885090054,0.3811766916658692,0.8033438662283557,1.0048150819278892,1.436819128601613,1.875832747278442,1.4946560556125728,-0.0060533646910334,0.0675014394079615,-0.1756236217916011,0.1435532234609127,0.0677723213873433,0.0401955132962902,0.0596324107002986,-0.0969747845083475,0.1946520626544952,0.0719145582971997,-0.0083434966883505,0.0656026788183153,-0.1739437505602836,0.147035151720047,0.0661311228176835,0.1107527641407918,0.0432659436695004,0.0386456474887511,0.2343546848950512,0.1189038125815915,0.0122102979675409,0.6519581371357194,-1.5598327211390557,1.7756953733969176,0.6520724683299653,-1.10340224412847,1.0576375979425834,2.161039842071053,4,0.04,1.298399988259924,149.23463563505177,1.4138116646438246,42.51985039539337,NORMAL,102.csv,200.05,201.05,NORMAL,ANOMALY,0.6712108262108264,ANOMALY_RECORDING_SAFE_REGION
-0.06649141454,0.3939501985021861,-1.058885574,1.1998353,0.3995220483370624,-0.6749065533999999,-0.3283656367499999,-0.067375366,0.18349134,0.5974775966,1.27238415,-0.00303352359,0.2781066283771662,-0.577050209,0.661306858,0.2781231723763526,-0.44227480845,-0.20893967125,0.0064141749999999,0.1464527845,0.4762631182499999,0.9185379267,-0.10253509921,0.3022920346924033,-0.941700578,0.628445596,0.3192082718359249,-0.5280842981,-0.329210583,-0.1249364465,0.091337975,0.4095055107,0.9375898088,0.5231437796874058,0.2553132834440488,0.0733544764112429,1.3721414197266089,0.5821205089400356,0.183046354790634,0.3507989642037111,0.4754999538269787,0.6789073642214325,0.9794224690366792,0.7963761142460453,-0.0006826429299999,0.0336387071532455,-0.13439025,0.103969187,0.0336456330050675,-0.0217415951299999,0.0219565498871777,-0.067042411,0.040011643,0.0308996285049669,0.00696019977,0.0318921704596191,-0.07489202,0.083444129,0.0326428386857471,0.05154396151947,0.022261864486151,0.0073141335186805,0.1352691385792471,0.0561459756306751,-0.0060732534743106,0.377843358436552,-1.0332986713116956,1.1114294147506667,0.3778921644098696,-0.5954070562404861,0.5869426210216971,1.182349677262183,4,0.04,0.8489976400392031,33.88642869286061,0.3152370579520364,14.280248792237597,NORMAL,42.csv,24.09,25.09,NORMAL,ANOMALY,0.5736338588947283,ANOMALY_RECORDING_SAFE_REGION
-0.0844385050237178,1.0944028704577018,-2.53780198097229,2.9475343227386475,1.097655457781128,-1.8154972791671755,-0.8098022304475307,-0.0594850182533264,0.5642528906464577,1.6880692064762115,3.503566485643387,-0.08862233877182,0.9861784741240858,-3.9725399017333984,1.961002349853516,0.990152463893868,-1.6565192222595215,-0.6722143888473511,-0.0647311210632324,0.4842703342437744,1.5176192283630368,3.174138450622558,0.1414618620276451,1.3416099270640645,-2.427914619445801,3.080208539962769,1.3490473137756038,-1.9976712584495544,-0.8915694355964661,0.2192872166633606,1.1425763815641403,2.2675318539142606,4.265203112363815,1.864007001919184,0.7284613629790015,0.2271297294184836,4.49067749144995,2.001294096467825,0.6773054659218265,1.3325059381608195,1.9108904916484324,2.3541935890876315,2.9183586391705902,2.241053173248764,-0.0039186976016353,0.2123054500851003,-0.5238165497779846,0.5086670994758606,0.2123416123295904,0.0142807970478897,0.1047729412774775,-0.1882990673184394,0.272354057431221,0.1057417154592111,0.0325606197550077,0.079534693492487,-0.186313759535551,0.2023489587008953,0.08594161639028,0.2257590766133479,0.1126457787466951,0.0709381106115331,0.5662815614457279,0.2523018671012184,-0.0015493822453648,0.9354367062880764,-2.420597200901571,2.5148002997445613,0.9354379894233648,-1.461186243404596,1.5473051220644558,3.008491365469052,2,0.02,2.626670489530766,400.5178060556967,6.36562321427609,87.50442320564271,NORMAL,95.csv,6.09,7.09,NORMAL,ANOMALY,0.5385211913432723,ANOMALY_RECORDING_SAFE_REGION
0.0250383284899999,0.1103924329339225,-0.281033158,0.280176252,0.113196321241654,-0.16229885265,-0.04119208025,0.0333060475,0.1061407662499999,0.1919568430499999,0.3542556956999999,0.0066732358999999,0.1085063319664359,-0.221785545,0.223784447,0.1087113432636514,-0.1543021445,-0.0867152215,0.0012114044999999,0.093094468,0.196669984,0.3509721285,0.00916029685,0.1717556991196042,-0.419591725,0.396220893,0.1719998000535004,-0.2555028165999999,-0.112202197,-0.0020333685,0.137577541,0.29434871635,0.54985153295,0.2152785725860709,0.0887165751175005,0.0277523305570905,0.4654190266000535,0.232842209479457,0.0693503506210245,0.1511519553564225,0.2168928917730759,0.2709416472502455,0.3450217472746653,0.2756713966536408,0.0003701961899999,0.0120408014174478,-0.031581709,0.022663083,0.0120464909410792,-0.00108337609,0.0142629818655263,-0.037415467,0.027488915,0.0143040677937682,0.00141597424,0.0184553679679481,-0.036041023,0.035888306,0.0185096080423305,0.0247608345725617,0.0089011774835222,0.0057220297596943,0.0465208218829068,0.026312162384018,-0.0012959277970212,0.131257196455467,-0.313950483480525,0.2967273469406759,0.1312635937730037,-0.2266905917258219,0.2015772357374005,0.4282678274632225,4,0.04,0.2501404540139825,5.421549451527533,0.0692329889322933,1.723013105020415,NORMAL,15.csv,2.09,3.09,NORMAL,ANOMALY,0.5782777777777778,ANOMALY_RECORDING_SAFE_REGION
0.1822240245342254,0.9832222617660962,-2.002872347831726,2.611073613166809,0.9999658049902944,-1.310226058959961,-0.4909025505185127,0.0917621552944183,0.792779766023159,1.7514439195394516,3.0616699784994124,0.0297237062454223,1.103541455360208,-2.0031471252441406,2.7383413314819336,1.1039416843345895,-1.4157963514328002,-0.8420037031173706,-0.1845500469207763,0.8788574934005737,2.089068055152893,3.504864406585693,-0.3422234605252743,0.8572998477841366,-2.022681176662445,1.8548388481140137,0.9230817547458064,-1.6566830456256867,-0.9379541426897048,-0.4514433331787586,0.2895259615033865,1.1260059222578995,2.7826889678835864,1.6276848028126096,0.6491078201646107,0.3955307734997487,3.480709006726562,1.7523409427123406,0.7776591824109796,1.154407341550816,1.534047450439295,1.9216108274809,2.8734782030283217,2.095819020617342,-0.0041703736160998,0.1125922231639022,-0.3531409323215485,0.270307669043541,0.1126694312273201,0.0254672581078484,0.0391884678887053,-0.0704021668061614,0.1312442995607853,0.0467366799312474,0.0122756332355493,0.08045339642362,-0.1450498431921005,0.2158490687608719,0.0813845204411126,0.1306151908242813,0.0666470560298812,0.0350937160467722,0.3599882283705789,0.1466361420370625,-0.0084417263407108,0.6024875701757553,-1.7314436123175574,1.8131655112811176,0.602546707699824,-0.9022104818899505,0.907971248704914,1.810181730594864,5,0.05,1.8530242039139524,307.0698779505975,2.150215815151357,36.30625349598971,NORMAL,95.csv,97.59,98.59,NORMAL,ANOMALY,0.8816587301587303,ANOMALY_RECORDING_SAFE_REGION
0.12146398674,0.2845463225496549,-0.715040028,0.682533294,0.3093866670548476,-0.3929546853,-0.06551725125,0.1639949674999999,0.29896876125,0.53742137605,0.93037606135,-0.02990397723,0.2702377272623621,-0.669659138,0.75947094,0.271887250694289,-0.49693493795,-0.14690601825,-0.0531330105,0.03159880625,0.50630307205,1.00323801,-0.22491259774,0.2548700845297199,-0.96147871,0.417172574,0.3399182793118688,-0.650032225,-0.357886158,-0.2152463495,-0.0870654805,0.2542507242,0.9042829492,0.4830278258879377,0.2277528108931261,0.0927833917314026,1.1297776610356047,0.5340292346414641,0.1862418820642106,0.3001147068567192,0.4506968437798979,0.6264709960992848,0.8947322983401182,0.7084904162759076,0.0005549707999999,0.0243915277629052,-0.051495901,0.047708539,0.0243978404617587,0.00267619869,0.0410978531004016,-0.091782434,0.084085539,0.0411848949117336,0.0046923597,0.0188814217961673,-0.043524115,0.066278829,0.0194557530977077,0.0477708610082481,0.0196957192104676,0.0144441104171853,0.0967711094201837,0.0516718154963317,-0.0007647756794953,0.2209688992326092,-0.6228534461076217,0.5739200350808495,0.2209702226769728,-0.3392563777156789,0.3445567277555763,0.6838131054712552,4,0.04,0.646749835147667,28.5187223451748,0.2669976516686945,4.882783930991096,NORMAL,57.csv,12.53,13.53,NORMAL,ANOMALY,0.7393518518518518,ANOMALY_RECORDING_SAFE_REGION
0.674239260815084,2.044799100407344,-3.677281618118286,4.897999286651611,2.153091252560177,-2.531263828277588,-1.177342213690281,0.7962963506579399,2.215276062488556,3.896170139312744,6.427433967590332,0.4081347322463989,2.1115007989339967,-4.562569856643677,4.20499324798584,2.1505835448930477,-2.715647006034851,-1.2240676879882812,0.5617477893829346,2.2486946582794194,3.57902181148529,6.294668817520141,-0.1115795686841011,1.570025739976863,-3.904258728027344,3.103070974349976,1.5739856493429745,-2.756639134883881,-1.164040356874466,-0.2332213819026947,0.9487490877509116,2.5305320322513567,5.287171167135238,3.218555401770138,1.174369394819957,0.9604777288288162,6.434763384533496,3.426111841395947,1.218257516110946,2.340483930487011,3.2151225479944654,3.8399192438138,5.310195267841597,4.091937751730651,-0.0069479758689994,0.2644947016943013,-0.5251604437828064,0.9382882714271544,0.2645859436799952,-0.0233057132346657,0.1049688321815795,-0.3911672651767731,0.2327394858002662,0.1075249366376985,-0.049199660457205,0.1603950103657671,-0.4621497452259063,0.3025307841598987,0.1677711713595003,0.292622815986209,0.1551978965566698,0.0741953430223413,0.9820028683095632,0.3312317912449129,0.021356987640273,1.173449576928754,-3.613212628446245,2.4944230833595227,1.1736439112930883,-2.059442889112158,1.7406259294989364,3.800068818611094,4,0.04,3.216207982763358,1173.8242349753525,10.971449953131357,137.74400305153387,NORMAL,95.csv,159.09,160.09,NORMAL,ANOMALY,0.8050726239670071,ANOMALY_RECORDING_SAFE_REGION
-0.6111712852120399,0.9013253842866992,-2.811195135116577,0.996997594833374,1.0889985253558898,-2.3454069972038267,-1.2012554034590723,-0.5454484298825264,0.0401313267648219,0.7013971492648124,3.0468041464686397,0.0169737815856933,0.6315742746615222,-1.6572813987731934,1.112635612487793,0.6318023216762871,-1.11030969619751,-0.3613469600677489,0.0864253044128417,0.5447865724563599,0.8514130115509032,1.9617227077484127,0.0265303933620452,0.9545470989644628,-2.601126790046692,2.1590384244918823,0.9549157166543112,-1.7404648125171662,-0.5877573825418949,0.1343017369508743,0.6453100964426994,1.612190160155296,3.3526549726724624,1.4015128401029122,0.7298751583955537,0.162446391754599,3.2868368377203883,1.5801759357161045,0.4831352659852475,0.8375852241339015,1.2339602420861968,1.9178572850109707,2.822537076160417,2.3394018101751697,-0.0410055201082286,0.1322133197394481,-0.3039052337408066,0.3831954717636108,0.1384262063190055,-0.0230228826217353,0.1188228349765985,-0.2520122617483139,0.3925722479820251,0.121032719692198,0.0376295758478372,0.0507239936566493,-0.0839939061552286,0.1598633140325546,0.0631578064135221,0.1741943366066388,0.0863479903477957,0.0251727063193846,0.4375734521611106,0.1944213011553261,0.0014618847009669,0.7170733231030121,-1.9045152640193597,1.6096709259274429,0.7170748132607054,-1.1266063009266911,1.1660215828452989,2.29262788377199,5,0.05,1.885323997617476,249.6955987816266,3.7799642342930015,51.41962878128757,NORMAL,102.csv,187.05,188.05,NORMAL,ANOMALY,0.587967658072565,ANOMALY_RECORDING_SAFE_REGION
-0.1842047367990017,0.5641008164666435,-1.840709269046784,0.9750131666660308,0.593414792701971,-1.1162605464458468,-0.5659694448113441,-0.0994703955948352,0.1791302002966403,0.7035904116928575,1.8198509581387043,-0.0500007963180542,0.4245217918449412,-0.9778032302856444,0.8353986740112305,0.4274562332960874,-0.7673478126525879,-0.3954389095306396,-0.0475938320159912,0.2886129617691039,0.5576823234558105,1.3250301361083985,0.5608639208972455,0.554768469623801,-0.9115623831748962,1.797065019607544,0.7888830031461989,-0.3817370757460594,0.0999759137630462,0.6079111099243164,0.9710899516940116,1.4228760391473767,1.804613114893436,1.0188261226407922,0.3452385726695343,0.2297014695241404,2.096467623778484,1.0757306076495956,0.5173341164816286,0.8183272091051016,1.0156831028800912,1.2261966968355618,1.584826973195739,1.0674928567141104,0.0146131072579009,0.0588350182083302,-0.0990211799740791,0.1695149764418602,0.0606226217785529,0.0101131719641052,0.0406813742849183,-0.0872009456157684,0.0881172437220811,0.0419195713347021,0.0107182334269455,0.0448059759837285,-0.1133154153823852,0.1228449061512947,0.0460701205951205,0.079888515963031,0.0342437404654359,0.0211475925514889,0.1871461408620922,0.0869184027915815,0.0075922598800302,0.4094800812924542,-1.0892040043727964,1.0347058620101204,0.4095504601210464,-0.5916220148617924,0.7028596959522643,1.2944817108140567,2,0.02,1.077641501137692,115.7196340234168,0.755480874383961,16.773157938536087,NORMAL,102.csv,130.05,131.05,NORMAL,ANOMALY,0.506473079110845,ANOMALY_RECORDING_SAFE_REGION
0.0070047674299999,1.4478656685246936,-2.914927959,3.912456989,1.4478826129418112,-2.0749688265,-1.18825313475,0.047167428,1.15937738125,2.3861226324,4.4610914589,-0.0139896440599999,1.0063813487028477,-3.755418777,2.947772026,1.0064785785886794,-1.6206162333,-0.6498032805,-0.003307581,0.64743900325,1.3929110049499998,3.01352723825,0.05281406043,1.347182363147286,-3.327680349,3.514168382,1.3482172097085134,-2.1753692687000004,-0.874216616,0.134164393,0.8301746475,2.3196548399,4.4950241086,2.032923175948008,0.8912217430386042,0.3119071716265009,4.900687039079009,2.2196965636256016,0.6850011130925986,1.4920721797305938,1.844895290938368,2.5831556531884337,3.557113791587845,2.8721126784952467,0.00406255592,0.1491709163781679,-0.488111508,0.375651291,0.1492262264272119,-0.00421069081,0.0932636154658851,-0.278248902,0.164505886,0.0933586197780681,-0.01635987495,0.0825615741987688,-0.197156604,0.125532711,0.084166852397832,0.1739682621241635,0.0883368629544212,0.0450973271789731,0.5031380209542073,0.1951111416171046,-0.0098544242689366,1.2383115427048714,-4.507928292285468,2.7946509804673667,1.238350752603555,-1.8227780785109895,1.8463495114900004,3.66912759000099,2,0.02,2.867763863131001,492.70528345713046,3.806835758312987,153.35125864737913,NORMAL,22.csv,2.59,3.59,NORMAL,ANOMALY,0.579844849219088,ANOMALY_RECORDING_SAFE_REGION
0.8055673897266388,1.1022831335433825,-2.408942461013794,3.8587626218795776,1.3652717406748038,-0.7001189395785332,-0.0322904810309409,0.8327484428882599,1.476988062262535,2.8156237602233887,3.5157426998019217,0.0444067788124084,1.0040935736680536,-2.489405632019043,3.3052940368652344,1.0050750552500929,-1.462757229804993,-0.5780729055404663,0.0024850368499755,0.6804280281066895,1.6061233997344968,3.068880629539489,0.0095801657438278,1.4259992742706706,-3.9816465377807617,3.5129082202911377,1.4260314547008277,-2.507129156589508,-0.8650292828679085,-0.0086715221405029,0.7490601390600204,2.673414754867553,5.180543911457061,1.982826840230293,0.98798088242116,0.1414034973873432,5.555518719671446,2.2153348510704527,0.6910817222825324,1.214856144766385,1.809602255109994,2.691729069767992,3.5191816173933064,2.828099895110774,0.0030198097578249,0.2113251257476266,-0.54092076420784,0.5795579552650452,0.2113467009991489,-0.0471660916460023,0.1095996454321522,-0.3360672563314438,0.2719875421375036,0.1193177374911735,-0.0041645705628325,0.0757430956126178,-0.17876957654953,0.1864053875207901,0.0758574991741421,0.2203772791971295,0.1268556876843197,0.0218193767163739,0.6091326968388698,0.2542803780951083,-0.0026077853781025,1.3548255067564468,-3.744792977987156,3.0653127365303035,1.3548280165033646,-2.036221735741299,2.2264543590231853,4.262676094764484,3,0.03,3.5726918794411526,490.7708502367345,6.465851068419123,183.55589543024408,NORMAL,95.csv,208.59,209.59,NORMAL,ANOMALY,0.6246182862605626,ANOMALY_RECORDING_SAFE_REGION
-0.4299060580134392,1.1096935224212163,-3.179617404937744,2.337321162223816,1.1900583735347865,-2.0085394084453583,-1.211103767156601,-0.5843737870454788,0.1917358487844467,1.6283374622464175,3.636876870691776,0.0448370933532714,1.2148211804986755,-3.3748772144317627,2.504087448120117,1.2156483313559747,-2.2496742486953734,-0.6638978719711304,0.1976902484893798,0.7775163650512695,1.7598556995391843,4.009529948234558,0.0936526611447334,1.4080401995547114,-3.510093688964844,3.986587524414064,1.411151311696078,-2.295916610956192,-0.9146101996302606,0.1354900300502776,0.9606141895055772,2.459212684631347,4.755129295587539,2.0571261794057314,0.8084675036474668,0.5783013602300165,4.495251081635889,2.2102913433415035,0.9221950912296016,1.442472840627658,1.9362905330321671,2.5530137207862382,3.475510697154197,2.5533156059245954,0.0056734067864017,0.2757123368116624,-0.6201804578304291,0.635452076792717,0.2757707022413939,0.0357850699175323,0.1087241998434759,-0.2583958096802234,0.4724733650684357,0.1144618838767157,-0.0020674720078823,0.0761939836720562,-0.1959348805248737,0.1582139767706394,0.0762220282354186,0.264732738264139,0.1577256413992669,0.0484403641584059,0.7597773436941808,0.3081571038669062,0.0145532552946646,1.0082216931796668,-2.854448690565161,2.456252146380729,1.0083267227628878,-1.502555408924639,1.676795436670191,3.1793508455948296,3,0.03,2.438124902230157,488.5387822450389,9.496080066363929,101.67227798377458,NORMAL,95.csv,19.59,20.59,NORMAL,ANOMALY,0.7618434343434343,ANOMALY_RECORDING_SAFE_REGION
-0.0407414547353982,0.8264952819822612,-1.8001195788383484,2.905023694038391,0.8274988321882357,-1.44575974047184,-0.5058425031602383,-0.1532872449606656,0.4393146112561226,1.372675448656082,2.818435189127922,-0.1374255108833313,0.6517435550413694,-2.200655698776245,1.1991901397705078,0.6660746449006352,-1.3344084739685058,-0.4451615810394287,-0.0910713672637939,0.2746548652648926,0.9087289571762084,2.243137431144714,0.3461068555712699,0.8215282767175046,-1.954259157180786,2.0413559675216675,0.8914587286688402,-1.2942360550165175,-0.0548941195011138,0.411596268415451,0.8900090008974075,1.5649078547954558,2.8591439098119737,1.2481297939002691,0.6043843415830169,0.357621069199219,3.142047305821297,1.3867618450088195,0.4742924062805294,0.798188986580664,1.0981403705787738,1.5873913767674497,2.567417139888036,2.0931247336075067,-0.0207296962874388,0.0882697260070162,-0.2976744055747986,0.1564424678683281,0.0906711907803309,-0.0281984345490927,0.0570257974481887,-0.1818849861621856,0.1217148080468177,0.0636167689027139,0.0275646622674612,0.0469765461561584,-0.1091920807957649,0.1746156960725784,0.0544665630885672,0.1089287909393089,0.0580472490504563,0.009190115346866,0.3100672913087625,0.1234299988569447,0.0070314125114703,0.6990145634891614,-2.061828975162068,1.800442768000631,0.6990499272096732,-1.1741683929576507,1.2018418831240538,2.376010276081705,7,0.07,1.893917511921028,192.3108414772265,1.5234964617825373,48.86708007318494,NORMAL,95.csv,166.09,167.09,NORMAL,ANOMALY,0.7253550070410401,ANOMALY_RECORDING_SAFE_REGION
0.1970189179,1.9892781662639571,-4.881012917,5.482812166,1.9990107745545,-3.19729065905,-1.20269823825,0.1386923195,1.64818488825,3.1454670611,6.342757720149999,0.0174293086699999,0.7482128809416535,-1.710417747,1.559698582,0.748415857667195,-1.2674917698,-0.48931598675,0.0732707975,0.50461316125,1.2264394520999995,2.4939312219,0.0787221179599999,1.3018430320234788,-2.839187384,2.715104938,1.30422101343453,-2.1075471816,-0.7431822419999999,0.013303548,1.123623222,2.2321705939,4.3397177755000005,2.2723938144490297,1.0456525124202036,0.5456045793205886,5.819582262868394,2.50143215472195,0.7666399459616738,1.4960397627076762,2.1876169242603085,2.870559562765587,4.044742930326315,3.278102984364641,0.00301889382,0.1549926779568885,-0.379652463,0.392786056,0.1550220756542247,-0.01680947356,0.0989915538312841,-0.257112987,0.252745312,0.1004085959034204,0.01067577763,0.0837175193757279,-0.24205517,0.20158538,0.0843954695373548,0.1882810439293011,0.0760695329732194,0.0420981678666993,0.4167600358932805,0.2030672926639618,-0.0048972206514172,1.6549038584036893,-4.891567315965927,4.563521134223404,1.6549111043586378,-2.2684469913554244,2.642905779008356,4.911352770363781,4,0.04,3.5471884484193645,625.7162824676897,4.123632534987114,273.8730763329526,NORMAL,22.csv,6.09,7.09,NORMAL,ANOMALY,0.6063064713064714,ANOMALY_RECORDING_SAFE_REGION
-0.1533425752818584,0.736649418986824,-3.1206483840942383,1.6280093789100647,0.7524402380838612,-1.285370287299156,-0.5141387768089771,-0.0772721916437149,0.2367543876171112,0.9017831563949584,2.1871534436941147,-0.0941139698028564,0.4005860289080203,-1.0331048965454102,0.7736911773681641,0.4114931419457076,-0.7673575401306152,-0.3662018775939941,-0.0570034980773925,0.1844123601913451,0.4715948343276977,1.2389523744583129,-0.2702927157282829,0.4868821895040178,-1.25334233045578,1.0369881391525269,0.5568773820438362,-0.948317188024521,-0.624643862247467,-0.3349677920341491,0.0422072261571883,0.6165849447250366,1.5649021327495576,0.909397579269343,0.4675482640403063,0.1414061878380248,3.198176558094544,1.022548451853527,0.3382740560774816,0.6167594545233713,0.8225820018524981,1.206166604109161,1.6547638231847446,1.3164897671072628,-0.0059712031555827,0.050754186876848,-0.1246164161711931,0.0981965130195021,0.0511042341949789,-0.0005396990585722,0.048909485119383,-0.1267544403672218,0.1333212375640869,0.0489124627239006,0.0109778508348681,0.0518298396929116,-0.1252883657813072,0.1590081006288528,0.0529796705496129,0.0800232872229291,0.0375125413155965,0.0193449893963151,0.1916946643669207,0.0883793938309024,0.0213341652295332,0.5529550195718442,-1.403007599931387,1.2276352346824866,0.5533664249624654,-0.771547786678215,0.8761368432833193,1.6476846299615344,3,0.03,2.2887789788252006,104.56053363880449,0.7810917253917753,30.62144002757397,NORMAL,102.csv,216.05,217.05,NORMAL,ANOMALY,0.734683234160762,ANOMALY_RECORDING_SAFE_REGION
-0.131974217519164,1.0093415838534625,-3.1255011558532715,2.1217029690742493,1.0179330169444407,-1.913774672150612,-0.7724887616932392,-0.0150508545339107,0.4481846019625664,1.4834408253431317,3.397215497493744,0.0307860326766967,0.767660888903516,-2.599738359451294,2.702970027923584,0.7682779576169727,-0.98327214717865,-0.465645432472229,0.041572093963623,0.3956155776977538,1.4261961936950684,2.409468340873718,-0.0140711686015129,0.7918626739962448,-1.800842046737671,2.9693007469177246,0.7919876844082205,-1.3225292891263962,-0.577175959944725,-0.0647023618221282,0.4409249648451805,1.4114902913570404,2.7340195804834364,1.331275490577741,0.6938218125621367,0.1920666512944601,3.5977759731007497,1.5012272111176288,0.4407567853955606,0.8220570134125789,1.226545593697583,1.603003490266199,2.55811307667253,2.11735629127697,-0.0029651375665998,0.1127020366716479,-0.4225657135248184,0.256379947066307,0.1127410356113794,0.0319662485761509,0.0849557205566556,-0.2565326675772666,0.2520733475685119,0.0907706753491062,-0.0094619898478267,0.0897057680540373,-0.27855434268713,0.2489273957908153,0.0902034038938948,0.1456359453350746,0.0887506738817428,0.0291666167595104,0.4717859085753886,0.1705476786359295,-0.0048648623368068,0.7270521173853903,-2.213713123386892,1.6477238470330036,0.7270683931241513,-1.0842650510118417,1.1542304170348274,2.2384954680466693,5,0.05,2.266500482523009,225.36831394000131,2.9086510688104297,52.862844828013536,NORMAL,102.csv,201.55,202.55,NORMAL,ANOMALY,0.5881030171116907,ANOMALY_RECORDING_SAFE_REGION
0.1901541272799999,1.8906137966943088,-3.850690842,4.840979338,1.9001523939864635,-2.7306593721000003,-0.96664506225,-0.161555834,1.4137613025,3.40422927755,6.13488864965,-0.0738868260499999,1.4662331106123454,-4.736546278,3.268310547,1.4680935929700452,-2.27092373385,-0.82355260825,-0.039701462,0.9023908375,2.1947849749,4.465708708749999,-0.1430127389699999,1.8414613239334223,-5.121155739,4.867927313,1.8470063484055312,-3.1857406024,-1.188569777,-0.242274091,1.01634853375,2.7572572891,5.942997891499999,2.7661484961491647,1.2352055968114093,0.7184547420603051,7.065232634442905,3.029407593761942,1.1176199712666317,1.8311252192144891,2.5949461168311645,3.5314754250345106,4.92287477729796,3.805254806031329,-0.0018280108499999,0.2166597165706988,-0.682244349,0.624639773,0.2166674281200644,-0.0430635235099999,0.1267564501767865,-0.381179623,0.334814987,0.1338718219735448,-0.0015283807399999,0.1105390274991381,-0.360165876,0.326201789,0.1105495931613573,0.2393507450631762,0.1407084663853735,0.0357988401744865,0.7606619629568968,0.277646630944482,0.0092145369354619,1.5359892429160211,-3.1774928807153264,4.569548653299471,1.5360168820832236,-2.20733969290675,2.8239980502890893,5.03133774319584,2,0.02,4.299084138293741,917.731036914252,7.708765167482139,235.9347862044668,NORMAL,22.csv,10.09,11.09,NORMAL,ANOMALY,0.7613193103235482,ANOMALY_RECORDING_SAFE_REGION
-0.03538596661,1.15732587081991,-4.055848241,3.029977322,1.1578667185397409,-1.9350755719,-0.5484128072500001,-0.0954396425,0.63281488425,1.8863467530999996,3.821422325,-0.0736188983199999,1.2194912825301796,-3.556330442,2.573256493,1.2217113940521929,-2.50259869085,-0.5967707635,0.0695898534999999,0.68555593525,1.5427991148999995,4.04539780575,0.04504267012,1.5707315870564804,-3.049815118,5.467930317,1.5713772814663287,-2.57928354705,-0.83165046575,0.077507883,0.92480671425,2.7656732621999995,5.34495680925,1.9843189062154376,1.1683060846385327,0.2567701925118931,5.981154550097991,2.302707239092162,0.68795002120042,1.1167869536799857,1.7269201566177197,2.6618127855857443,4.166175029543442,3.4782250083430224,-0.0130450171899999,0.2236760221646931,-0.674394712,0.585910964,0.2240560987005434,-0.00527206785,0.120674233600088,-0.328920147,0.264199018,0.1207893428841452,0.0019856102899999,0.0552458942687141,-0.114873122,0.166124678,0.055281565478681,0.2175214050679344,0.143288836056186,0.022387402501065,0.7244354685510224,0.2604750510146124,0.0030056522252132,1.3455272941875205,-4.292469591832288,4.637076127488248,1.3455306512112195,-2.037735623982221,2.2098223343102674,4.2475579582924885,5,0.05,3.9968356438825534,530.2460628967448,6.784725220106496,181.0452733348889,NORMAL,83.csv,15.1,16.1,NORMAL,ANOMALY,0.6764032436272561,ANOMALY_RECORDING_SAFE_REGION
0.00852871553,0.1762912037615627,-0.400945365,0.398823887,0.1764973867010288,-0.29898013625,-0.09808974525,0.0169396159999999,0.12450405925,0.3103710905499999,0.6093512267999999,0.0025196313499999,0.1096338067946122,-0.221785545,0.223784447,0.1096627563688705,-0.15456202075,-0.08451986325,-0.001292944,0.09073400475,0.196669984,0.35123200475,-0.0109701746899999,0.1837098240154782,-0.432444334,0.411590278,0.1840370728210137,-0.3446370783499999,-0.116196394,-0.0109927355,0.12589959775,0.2612797377499999,0.6059168160999999,0.251776885713681,0.1168558583878352,0.0367184156894702,0.5641599426716918,0.2775732188436735,0.0696750892475434,0.167301043353387,0.2298904883976971,0.3161745636785278,0.4522552195203222,0.3825801302727787,0.0006557637999999,0.0153580431976123,-0.038637198,0.032223118,0.0153720368533619,-0.0126015317,0.0114752725815025,-0.038087419,0.009315688,0.0170434879647884,0.00341136625,0.0171845146919949,-0.036041023,0.036468627,0.0175198448877559,0.0271421504091333,0.0098503114207632,0.0068433891294745,0.0515513878431133,0.0288742959034161,0.0024642678774612,0.1643871683298536,-0.3932019547314732,0.3735223804089995,0.1644056377612383,-0.2790861620601121,0.2628619659683754,0.5419481280284876,2,0.02,0.3123830569580107,7.704689181923786,0.0833724963918035,2.702921372767951,NORMAL,15.csv,2.59,3.59,NORMAL,ANOMALY,0.8369444444444446,ANOMALY_RECORDING_SAFE_REGION
0.05387430464,0.9627469703203818,-3.788494349,3.281273603,0.9642531667365772,-1.78120669975,-0.21566052475,0.097312551,0.44963953825,1.302792966799999,3.0839996665499987,0.0320498419,0.710245117069164,-2.498738289,2.064572811,0.7109678745811273,-1.1571590189999998,-0.26287746425,0.045908451,0.472990155,1.0131623503,2.1703213693,0.00662689382,0.9917239301535292,-2.597976208,3.445002913,0.9917460710085336,-1.51167933645,-0.71287503875,-0.0674386025,0.5664017495,1.63793038765,3.1496097241000003,1.2926162733326807,0.8648484997525974,0.077870678030903,3.9602504190605856,1.5552555280753022,0.3005724044324269,0.6836034355580825,1.0632101612287488,1.674542334930342,3.018890697540845,2.718318293108418,0.0033634208099999,0.1179164039641022,-0.32482734,0.327881671,0.1179643629380097,-0.00837098633,0.0897565228823033,-0.266031615,0.440280788,0.090146030484201,-0.0028683121799999,0.0562217483452555,-0.211053777,0.209221184,0.0562948683430308,0.1305389667379576,0.0903913054456818,0.0122953136063155,0.5522108380281439,0.1587797529195336,0.0010894434012576,0.9237016746837426,-2.274589323994367,2.8662734502335017,0.9237023171457758,-1.5585421399714037,1.3764030442930388,2.9349451842644423,5,0.05,2.667634145727905,241.88197576087867,2.521100993718816,85.32259707004752,NORMAL,83.csv,17.1,18.1,NORMAL,ANOMALY,0.5841269712934831,ANOMALY_RECORDING_SAFE_REGION
0.1319194661267101,1.0738021789310015,-2.0565524101257324,2.7261146306991577,1.0818751614766475,-1.304449313879013,-0.6773759573698044,0.0233601871877908,0.7624700218439102,2.2430282205343244,3.5474775344133374,-0.1557199907302856,0.770441346337254,-2.0924386978149414,1.4519305229187012,0.7860207272451541,-1.3236346244812012,-0.6875776052474976,-0.1903314590454101,0.4014014005661011,1.053977799415588,2.3776124238967893,-0.6345321474969388,1.0746848658848998,-3.0933189392089844,1.979891061782837,1.2480298903348117,-2.459481137990951,-1.3172841519117355,-0.6496629416942596,0.1442179232835769,1.038948245346546,3.4984293833374966,1.6983070417195518,0.6794219954446795,0.1227497144365767,3.251814945558151,1.8291694989388612,0.5355687280777355,1.2409144887191192,1.605605700709978,2.271199534639873,2.7935741464795125,2.258005418401777,0.0110203061584034,0.1485901390288301,-0.448374755680561,0.3232085525989532,0.148998243494452,0.0457696543787897,0.0631164765990225,-0.0997847633436322,0.3193906515836716,0.0779650619202525,-0.0120431990576325,0.061254456256656,-0.1485928580164909,0.1807854294776916,0.062427133963048,0.1577542187658641,0.0853802141076787,0.0119451018081682,0.5215225652524755,0.1793771850027232,0.0006230084815201,0.7778474167655193,-2.661471124319755,2.4725879855661668,0.7778476662614342,-1.1955538070652174,1.131117590443672,2.326671397508889,1,0.01,1.575557327282975,334.5861055848245,3.2176174499501182,60.50469919083595,NORMAL,95.csv,235.59,236.59,NORMAL,ANOMALY,0.7734920634920637,ANOMALY_RECORDING_SAFE_REGION
-0.16106776805,0.4831929288472484,-1.925227106,0.868854105,0.5093311618118321,-1.1142872546,-0.34065871675,-0.0932975279999999,0.12823849525,0.4771678880499999,1.59145514265,-0.14977801127,0.4025853782469661,-1.450494766,0.533269882,0.4295444557182051,-0.9675177101,-0.3927268985,-0.0172672275,0.12237966075,0.3299341921499999,1.29745190225,-0.03671051526,0.2988140539424556,-0.778562367,0.664132804,0.3010606263930563,-0.5420810694999999,-0.235159904,-0.022620743,0.17777869875,0.4083752329999999,0.9504563024999998,0.5973201109202477,0.4216311868033982,0.1352208829826845,2.4130371304447618,0.7311389557361987,0.1957098340025925,0.3174185692080975,0.4590998339616334,0.8283077417899029,1.4415711434492169,1.2458613094466244,-0.0088502115399999,0.0345034648617421,-0.087292577,0.091935149,0.0356204341883731,-0.0245515737199999,0.0180142134813852,-0.073395403,0.018723006,0.0304514639957017,0.01224600583,0.0335981316885246,-0.039706211,0.113315417,0.0357603007782071,0.052767282196142,0.0262777478606955,0.0151038395487584,0.1436386704494556,0.058948334183398,0.0054644675824187,0.2807784804266436,-0.5928479241284303,0.8882533726928069,0.2808316497061084,-0.405110900334136,0.5028600226027969,0.9079709229369328,5,0.05,1.815717019524514,53.45641725950191,0.347490610299758,7.88664154766544,NORMAL,15.csv,26.09,27.09,NORMAL,ANOMALY,0.7229603174603175,ANOMALY_RECORDING_SAFE_REGION
-0.1044864745,1.0133571586920678,-2.649303317,2.207817316,1.0187296768161314,-1.9286913661,-0.75425682375,-0.1791635305,0.6354836335,1.39234131615,3.3210326822500003,0.05253457791,1.0631784272832914,-3.556330442,2.573256493,1.064475575162133,-1.7859374997,-0.64222133125,0.1328959465,0.7342505455,1.6645733831,3.4505108828,0.0828796756599999,1.507914856940869,-2.823009491,5.467930317,1.5101908013295893,-2.37853821785,-0.7857160867499999,0.0993261635,0.8788505645,2.779053664549999,5.157591882399998,1.8447047956566616,1.0240404668979026,0.4290293306193761,5.981154550097991,2.10988024801484,0.7592219621548602,1.1198121410689827,1.4825170266238028,2.4016851848955327,4.01124291891204,3.25202095675718,-0.00551458456,0.2090746204138798,-0.674394712,0.585910964,0.2091473345373478,0.00581849039,0.1129625895953643,-0.278707061,0.302988932,0.1131123400805996,0.0137362128199999,0.0557055302601346,-0.114873122,0.166124678,0.0573741199862717,0.2084501473215025,0.1279739612125433,0.0205607290480139,0.7244354685510224,0.2445992613782504,-0.0025491354740217,1.3167357684193577,-4.292469591832288,4.637076127488248,1.3167382359172917,-2.0240508169383267,1.992106266034238,4.016157082972565,6,0.06,4.13644975444133,445.1594660963161,5.982879866678567,173.37995819265814,NORMAL,83.csv,15.6,16.6,NORMAL,ANOMALY,0.5392243997049094,ANOMALY_RECORDING_SAFE_REGION
-0.1942594289034605,0.9597812886756232,-2.7139127254486084,1.8370649218559263,0.979242997324841,-1.726458203792572,-0.8549322485923767,-0.3103956133127212,0.5105821788311005,1.3840973794460296,3.1105555832386016,-0.0187080883979797,0.5780572175835696,-1.566272497177124,1.4434232711791992,0.5783598701258283,-1.0443440198898315,-0.3824000358581543,-0.0614051818847656,0.3280351161956786,0.9248123645782466,1.9691563844680784,-0.1974309936165809,0.6865154949042875,-1.69969242811203,1.619024932384491,0.7143406204214551,-1.18088351637125,-0.7100287899374962,-0.1800252199172973,0.2113114073872566,1.050242820382118,2.231126336753368,1.2298684299054563,0.5395582955415479,0.2030726420607061,2.9180207353660337,1.3430188044721536,0.4833726500270985,0.826772715042994,1.2046590213272663,1.568034270778605,2.140853708497763,1.6574810584706643,-0.0024257440291694,0.0897868049598314,-0.2477056682109832,0.1998138695955276,0.0898195667935993,0.034269514168729,0.0753076156701242,-0.1266628138720989,0.2226296693086624,0.0827383621984377,-0.0105279490782995,0.0737800658731481,-0.1739437505602836,0.1649945795536041,0.0745274166467706,0.1300564739754209,0.0596057091845381,0.0248608648294916,0.3204300556645337,0.1430647650202909,-0.0016011859739443,0.7682656958569211,-1.751529315119635,2.428670626380118,0.7682673644162183,-1.313289111759885,1.0705814561445992,2.3838705679044843,4,0.04,1.6881523054605774,180.3699509165813,2.046752699031108,59.02347432270424,NORMAL,102.csv,199.55,200.55,NORMAL,ANOMALY,0.5141930216678297,ANOMALY_RECORDING_SAFE_REGION
-0.1804898428544402,0.7793431365055982,-2.0565524101257324,2.3149876594543457,0.7999701918146725,-1.2845871895551682,-0.7124864459037781,-0.1887123249471187,0.1807742379605769,1.1583545461297031,2.4429417356848715,-0.2109175825119018,0.7461053884661702,-2.0924386978149414,1.4445390701293943,0.775344747393648,-1.3019243717193605,-0.7359253168106079,-0.2463073730468749,0.3187114000320434,0.9244473218917846,2.226371693611145,-0.6534853373467923,0.9361321352099068,-3.0933189392089844,1.1984066367149353,1.1416595204788114,-2.4193298399448397,-1.2212763875722883,-0.7018027752637863,0.0273765251040458,0.974558053910732,3.393887893855571,1.454748308375697,0.6543742087528216,0.1227497144365767,3.251814945558151,1.5951483460176463,0.5263507472259652,0.9541709528721024,1.3694466450628724,1.7989891524596051,2.649538711146669,2.123187963920704,-0.0314680880282539,0.1310569195003744,-0.448374755680561,0.261297408491373,0.134781885700867,0.0481453075604804,0.0623215480845724,-0.0997847633436322,0.3193906515836716,0.0787524348560152,-0.0216120904304552,0.0470137238237362,-0.1485928580164909,0.0836579322814941,0.0517433346485198,0.1402617257252163,0.0858610720056849,0.0082865104021766,0.5215225652524755,0.1644550862374929,-0.0030678995059353,0.7667174280451651,-2.661471124319755,2.4725879855661668,0.7667235658798883,-1.0871905484025346,1.1093785243500849,2.1965690727526197,4,0.04,1.797066637182454,254.44982458028332,2.704547538938123,58.786502647557136,NORMAL,95.csv,236.09,237.09,NORMAL,ANOMALY,0.7822222222222223,ANOMALY_RECORDING_SAFE_REGION
0.2533727438747883,0.7700775401763102,-1.622035562992096,2.322894334793091,0.8106893148565828,-0.872638612985611,-0.2191256433725356,0.2026261836290359,0.6656000204384327,1.761268079280853,2.633906692266464,0.0485414218902587,0.8750709745787439,-2.008836030960083,2.3768763542175293,0.8764162710660505,-1.2870158195495605,-0.4669348001480102,-0.0711736679077148,0.4272871017456054,1.757630968093871,3.044646787643432,0.2128509758412838,0.5579194444340391,-1.0628830194473269,1.7557134628295898,0.5971429011502805,-0.664042292535305,-0.1428289264440536,0.2073386013507843,0.5699372105300426,1.2571608185768126,1.9212031111121173,1.1405234068020171,0.6936199595908773,0.2072891658058333,3.333898378769095,1.3348791292870414,0.3506374007184742,0.6503210647600941,0.93572048495451,1.5120011568530232,2.411242083107318,2.060604682388844,-0.0089015213227394,0.0702852977696406,-0.1568395309150219,0.1864970177412033,0.0708467371473537,-0.0732808662031238,0.051936289740147,-0.2097404211759567,0.0797178551147226,0.089819060023208,-0.0187437748887168,0.0624346825717475,-0.2692081093788147,0.0850934647023677,0.0651875654163718,0.122515945483225,0.0482284718309017,0.0198166546861041,0.3053157436834754,0.1316667854578087,0.0173062616201791,0.4930319151056526,-1.3243316225293476,1.5751126385406755,0.4933355612602983,-0.7968634244765863,0.802809675759002,1.5996731002355884,4,0.04,2.193374971967078,178.19022898061297,1.7336142392792644,24.33799760040136,NORMAL,102.csv,195.55,196.55,NORMAL,ANOMALY,0.8435555555555557,ANOMALY_RECORDING_SAFE_REGION
-0.22073714926,1.3572446456331666,-3.432751417,2.956024885,1.375077422243319,-2.5426606833000003,-1.0403571945,-0.2686503715,0.61391482325,1.8657684799,4.4084291632,0.0704155207,0.8553359335152395,-1.781635284,2.173843861,0.8582295175055668,-1.3624727608,-0.45576381675,-0.0781087875,0.686153114,1.4738084794499997,2.83628124025,0.08376733527,1.413901448222449,-2.906550646,3.947149396,1.41638069449699,-2.4532926562,-0.8917027265,0.2727876455,1.14341313725,2.1286288141,4.581921470299999,1.9906197736478024,0.8191233181806739,0.5421642092040894,4.364561145353523,2.152563609658248,0.8605086992720883,1.3896620513042004,1.9473897012729449,2.491577980908059,3.405958087523468,2.545449388251379,0.00501519855,0.1855489447049699,-0.465326242,0.523969263,0.1856167101788626,0.00968098116,0.0802331346518186,-0.228035825,0.206411207,0.0808150808468142,-0.0014508036599999,0.0852415714904863,-0.191200679,0.206472294,0.0852539168685378,0.1967427340178339,0.0976993722728883,0.0404372744699173,0.5492340844783368,0.2196653607907459,-0.0005983310939662,1.1863042651757971,-2.918936945124647,2.595715698170953,1.1863044160646063,-2.0059079065335914,2.0373867089852364,4.043294615518828,4,0.04,2.3739413717057207,463.3530093624946,4.825287073132857,140.73181675743865,NORMAL,22.csv,3.59,4.59,NORMAL,ANOMALY,0.5765552936574239,ANOMALY_RECORDING_SAFE_REGION
-0.06977436105,0.6698261153947029,-1.751671851,1.529124856,0.6734504334579448,-1.04524118585,-0.5467232115,-0.131026473,0.340092845,1.133087241999999,2.1783284278499995,-0.01616033079,0.4600790415257371,-0.90072298,1.191552162,0.4603627708041596,-0.7126028533500001,-0.35397422325,-0.08160305,0.2315084935,0.8165540928999999,1.52915694625,-0.25551562037,0.6754614152484616,-1.620937705,1.796446681,0.7221747404489586,-1.3027492844000002,-0.825726375,-0.2653134164999999,0.2435594255,0.7547867645499997,2.05753604895,0.9989272840735564,0.4349137890928798,0.1479788803739436,2.443150449775696,1.0894979223521712,0.42103807548738,0.6847292493050393,0.9597226674206486,1.275238170586417,1.763036767878353,1.341998692390973,0.00250546192,0.0753597523482788,-0.157144967,0.156381384,0.0754013899966472,0.0008857539699999,0.0505325060614752,-0.127579107,0.121256656,0.05054026839015,-0.0027455287899999,0.0385615152463597,-0.108611758,0.077335481,0.0386591306993826,0.0914334159365711,0.0370694912155106,0.0226627952443589,0.1669576912324917,0.0986621342198051,-0.0062095006891679,0.6547759110988554,-1.5861248648776425,1.6663137826986925,0.6548053540206775,-1.0123559707076133,1.1099656383883283,2.1223216090959416,3,0.03,1.4442231657021396,118.70057228096977,0.9734216728806844,42.87700516541449,NORMAL,37 - Normal Road.csv,7.59,8.59,NORMAL,ANOMALY,0.6500180516104336,ORIGINAL_NORMAL
0.4726804616302252,0.5162912237468117,-0.9290508031845092,1.922121524810791,0.6999881759893828,-0.3407649166882037,0.1595722893252968,0.4566456638276577,0.8010259419679642,1.211091351509094,1.5518562681972976,0.000994369983673,0.5074967806084569,-1.3553037643432615,1.220083236694336,0.5074977547729771,-0.8682774066925049,-0.3276910781860351,-0.019944429397583,0.3210165500640868,0.7674185514450067,1.6356959581375117,0.2299837026000022,0.5312947361635119,-0.9749675989151,2.0963692665100098,0.5789357478482927,-0.6065558016300201,-0.1751973032951354,0.2888154238462447,0.5316192060709,1.082063460350036,1.6886192619800562,0.9700843029083158,0.3763515152249355,0.1967982791606921,2.207865572394113,1.0405306423941671,0.4520496011031806,0.7080092441650568,0.9006498221027175,1.198796294388652,1.551820822644885,1.0997712215417044,-0.0023014328602002,0.0722515883302223,-0.1673158645629882,0.2338084951043129,0.0722882328560459,-0.0796537130181968,0.0392053470857196,-0.1751654762774706,0.0210442905314266,0.088779351415163,0.0166344587701896,0.0367926490335178,-0.0892168022692203,0.1073594857007265,0.0403782644684088,0.1131890215067016,0.0438863475238384,0.0342210379881385,0.2781553921605932,0.1213992013508643,0.0062594135653442,0.4838455436440086,-1.0591973152758365,1.6972076220972416,0.4838860303442828,-0.7335866760705956,0.7852007284251863,1.518787404495782,3,0.03,1.2377812694857973,108.2704017761218,1.473776608862769,23.414569036234823,NORMAL,95.csv,188.09,189.09,NORMAL,ANOMALY,0.6647370824895801,ANOMALY_RECORDING_SAFE_REGION
